%time,field.header.seq,field.header.stamp,field.header.frame_id,field.orientation.x,field.orientation.y,field.orientation.z,field.orientation.w,field.orientation_covariance0,field.orientation_covariance1,field.orientation_covariance2,field.orientation_covariance3,field.orientation_covariance4,field.orientation_covariance5,field.orientation_covariance6,field.orientation_covariance7,field.orientation_covariance8,field.angular_velocity.x,field.angular_velocity.y,field.angular_velocity.z,field.angular_velocity_covariance0,field.angular_velocity_covariance1,field.angular_velocity_covariance2,field.angular_velocity_covariance3,field.angular_velocity_covariance4,field.angular_velocity_covariance5,field.angular_velocity_covariance6,field.angular_velocity_covariance7,field.angular_velocity_covariance8,field.linear_acceleration.x,field.linear_acceleration.y,field.linear_acceleration.z,field.linear_acceleration_covariance0,field.linear_acceleration_covariance1,field.linear_acceleration_covariance2,field.linear_acceleration_covariance3,field.linear_acceleration_covariance4,field.linear_acceleration_covariance5,field.linear_acceleration_covariance6,field.linear_acceleration_covariance7,field.linear_acceleration_covariance8
1560476267733149728,10973,1560476267661896192,base_link,-0.00876399213639,-0.00351068348526,-0.591141813778,-0.806512420403,1.0,0.0,0.0,0.0,1.0,0.0,0.0,0.0,1.0,-9.43377672229e-05,-0.000227789103519,0.00106160435826,1.21846967915e-07,0.0,0.0,0.0,1.21846967915e-07,0.0,0.0,0.0,1.21846967915e-07,0.0575824566185,0.185121715069,9.80192184448,9e-08,0.0,0.0,0.0,9e-08,0.0,0.0,0.0,9e-08
1560476267733174508,10974,1560476267681896192,base_link,-0.00877292414019,-0.0035014709415,-0.591145554311,-0.806509691394,1.0,0.0,0.0,0.0,1.0,0.0,0.0,0.0,1.0,-0.000851906253956,-1.99382775463e-05,0.000112853129394,1.21846967915e-07,0.0,0.0,0.0,1.21846967915e-07,0.0,0.0,0.0,1.21846967915e-07,0.0558352954686,0.18850196898,9.81403541565,9e-08,0.0,0.0,0.0,9e-08,0.0,0.0,0.0,9e-08
1560476267733205442,10975,1560476267701896192,base_link,-0.00876232684196,-0.00351093422608,-0.591148810155,-0.806507362781,1.0,0.0,0.0,0.0,1.0,0.0,0.0,0.0,1.0,-0.001293922076,0.00114129146095,-0.00106539484113,1.21846967915e-07,0.0,0.0,0.0,1.21846967915e-07,0.0,0.0,0.0,1.21846967915e-07,0.0274551957846,0.178336307406,9.79697227478,9e-08,0.0,0.0,0.0,9e-08,0.0,0.0,0.0,9e-08
1560476267733260838,10976,1560476267721896192,base_link,-0.00875961495568,-0.0035124791715,-0.591152571761,-0.806504612699,1.0,0.0,0.0,0.0,1.0,0.0,0.0,0.0,1.0,5.50952972844e-06,-0.00044774019625,0.000634064548649,1.21846967915e-07,0.0,0.0,0.0,1.21846967915e-07,0.0,0.0,0.0,1.21846967915e-07,0.0581501424313,0.158974200487,9.81026935577,9e-08,0.0,0.0,0.0,9e-08,0.0,0.0,0.0,9e-08
1560476267744983779,10977,1560476267741894400,base_link,-0.00875996810017,-0.00350642961701,-0.59116074825,-0.806498543553,1.0,0.0,0.0,0.0,1.0,0.0,0.0,0.0,1.0,-0.000530798803084,-0.000548985146452,-4.94613777846e-06,1.21846967915e-07,0.0,0.0,0.0,1.21846967915e-07,0.0,0.0,0.0,1.21846967915e-07,0.0359380543232,0.19451059401,9.78153610229,9e-08,0.0,0.0,0.0,9e-08,0.0,0.0,0.0,9e-08
1560476267768424290,10978,1560476267765894400,base_link,-0.0087540922368,-0.00351137034718,-0.59116074825,-0.806498627847,1.0,0.0,0.0,0.0,1.0,0.0,0.0,0.0,1.0,-0.00276569765992,0.00136627280153,0.000241812726017,1.21846967915e-07,0.0,0.0,0.0,1.21846967915e-07,0.0,0.0,0.0,1.21846967915e-07,0.0619936287403,0.178067281842,9.80557918549,9e-08,0.0,0.0,0.0,9e-08,0.0,0.0,0.0,9e-08
1560476267784478168,10979,1560476267781894400,base_link,-0.00875441097234,-0.00351136244465,-0.591170916177,-0.806491157318,1.0,0.0,0.0,0.0,1.0,0.0,0.0,0.0,1.0,-5.97259349888e-05,-0.000856558559462,0.00361885549501,1.21846967915e-07,0.0,0.0,0.0,1.21846967915e-07,0.0,0.0,0.0,1.21846967915e-07,0.0626426935196,0.159301280975,9.79318714142,9e-08,0.0,0.0,0.0,9e-08,0.0,0.0,0.0,9e-08
1560476267808447890,10980,1560476267805894400,base_link,-0.00876442562331,-0.003504859153,-0.591177111763,-0.806486563311,1.0,0.0,0.0,0.0,1.0,0.0,0.0,0.0,1.0,-0.00019688080647,-0.00172018515877,0.00128506193869,1.21846967915e-07,0.0,0.0,0.0,1.21846967915e-07,0.0,0.0,0.0,1.21846967915e-07,0.102182909846,0.147498428822,9.83425712585,9e-08,0.0,0.0,0.0,9e-08,0.0,0.0,0.0,9e-08
1560476267824757629,10981,1560476267821894400,base_link,-0.00873821588117,-0.00351149563528,-0.591186710708,-0.806479830352,1.0,0.0,0.0,0.0,1.0,0.0,0.0,0.0,1.0,-0.00150764500722,0.00180458044633,1.35252485052e-05,1.21846967915e-07,0.0,0.0,0.0,1.21846967915e-07,0.0,0.0,0.0,1.21846967915e-07,0.0236697383225,0.208558470011,9.76482486725,9e-08,0.0,0.0,0.0,9e-08,0.0,0.0,0.0,9e-08
1560476267845628624,10982,1560476267841892608,base_link,-0.00875407577319,-0.00349772991479,-0.591184245118,-0.806481537299,1.0,0.0,0.0,0.0,1.0,0.0,0.0,0.0,1.0,0.00267351814546,-0.000126109574921,0.000917681434657,1.21846967915e-07,0.0,0.0,0.0,1.21846967915e-07,0.0,0.0,0.0,1.21846967915e-07,0.059341032058,0.162299484015,9.86276340485,9e-08,0.0,0.0,0.0,9e-08,0.0,0.0,0.0,9e-08
1560476267866254287,10983,1560476267861892608,base_link,-0.00875970056647,-0.00349911203508,-0.591185446303,-0.806480588995,1.0,0.0,0.0,0.0,1.0,0.0,0.0,0.0,1.0,0.00148159207311,0.000934285810217,0.000180553703103,1.21846967915e-07,0.0,0.0,0.0,1.21846967915e-07,0.0,0.0,0.0,1.21846967915e-07,0.119579076767,0.172846928239,9.79222106934,9e-08,0.0,0.0,0.0,9e-08,0.0,0.0,0.0,9e-08
1560476267886335029,10984,1560476267881892608,base_link,-0.00875816484067,-0.00349651736972,-0.591184656049,-0.806481126368,1.0,0.0,0.0,0.0,1.0,0.0,0.0,0.0,1.0,0.00019222163246,-0.00130294938572,-0.000200339884032,1.21846967915e-07,0.0,0.0,0.0,1.21846967915e-07,0.0,0.0,0.0,1.21846967915e-07,0.083826251328,0.141225934029,9.81492900848,9e-08,0.0,0.0,0.0,9e-08,0.0,0.0,0.0,9e-08
1560476267909262074,10985,1560476267905892608,base_link,-0.00876304679575,-0.00349239142374,-0.591189829575,-0.806477301541,1.0,0.0,0.0,0.0,1.0,0.0,0.0,0.0,1.0,0.00106062635314,-0.000980837387033,9.15567507036e-05,1.21846967915e-07,0.0,0.0,0.0,1.21846967915e-07,0.0,0.0,0.0,1.21846967915e-07,0.0731829479337,0.196834117174,9.80358505249,9e-08,0.0,0.0,0.0,9e-08,0.0,0.0,0.0,9e-08
1560476267926529208,10986,1560476267921892608,base_link,-0.00876296381914,-0.00348589949198,-0.591188343899,-0.806478365749,1.0,0.0,0.0,0.0,1.0,0.0,0.0,0.0,1.0,-0.00105887465179,-0.000980875920504,0.000659792916849,1.21846967915e-07,0.0,0.0,0.0,1.21846967915e-07,0.0,0.0,0.0,1.21846967915e-07,0.0623600296676,0.217821136117,9.77395057678,9e-08,0.0,0.0,0.0,9e-08,0.0,0.0,0.0,9e-08
1560476267944898105,10987,1560476267941888256,base_link,-0.00875935614769,-0.0034833352843,-0.591187237544,-0.806479219223,1.0,0.0,0.0,0.0,1.0,0.0,0.0,0.0,1.0,-0.000197083165403,-0.00108304596506,0.00107055506669,1.21846967915e-07,0.0,0.0,0.0,1.21846967915e-07,0.0,0.0,0.0,1.21846967915e-07,0.0545799098909,0.149920031428,9.83709907532,9e-08,0.0,0.0,0.0,9e-08,0.0,0.0,0.0,9e-08
1560476267965517327,10988,1560476267961888256,base_link,-0.00876599526415,-0.00347994674353,-0.591193749232,-0.806474477702,1.0,0.0,0.0,0.0,1.0,0.0,0.0,0.0,1.0,0.000967980013229,-0.000234273611568,0.000943592633121,1.21846967915e-07,0.0,0.0,0.0,1.21846967915e-07,0.0,0.0,0.0,1.21846967915e-07,0.0970732867718,0.171596676111,9.80290412903,9e-08,0.0,0.0,0.0,9e-08,0.0,0.0,0.0,9e-08
1560476267985576867,10989,1560476267982888256,base_link,-0.00878017504449,-0.0034849029495,-0.591193591181,-0.806474467166,1.0,0.0,0.0,0.0,1.0,0.0,0.0,0.0,1.0,0.000206282304134,0.00209757057019,-0.00012213177979,1.21846967915e-07,0.0,0.0,0.0,1.21846967915e-07,0.0,0.0,0.0,1.21846967915e-07,0.0615166686475,0.171869575977,9.85117912292,9e-08,0.0,0.0,0.0,9e-08,0.0,0.0,0.0,9e-08
1560476268006470346,10990,1560476268002888256,base_link,-0.0087537112688,-0.00348297687145,-0.591197310641,-0.806472012112,1.0,0.0,0.0,0.0,1.0,0.0,0.0,0.0,1.0,-0.00224232696928,0.000603546854109,-0.000502329086885,1.21846967915e-07,0.0,0.0,0.0,1.21846967915e-07,0.0,0.0,0.0,1.21846967915e-07,0.0627403631806,0.15858463943,9.73781108856,9e-08,0.0,0.0,0.0,9e-08,0.0,0.0,0.0,9e-08
1560476268025236250,10991,1560476268022888256,base_link,-0.00876797814166,-0.00348235108953,-0.591198954368,-0.806470705559,1.0,0.0,0.0,0.0,1.0,0.0,0.0,0.0,1.0,0.00287240860052,-0.000880527193658,-3.71385249309e-05,1.21846967915e-07,0.0,0.0,0.0,1.21846967915e-07,0.0,0.0,0.0,1.21846967915e-07,0.0348996520042,0.157575011253,9.86235618591,9e-08,0.0,0.0,0.0,9e-08,0.0,0.0,0.0,9e-08
1560476268046752287,10992,1560476268042886464,base_link,-0.00876693006808,-0.00349706527875,-0.591209807181,-0.806462634438,1.0,0.0,0.0,0.0,1.0,0.0,0.0,0.0,1.0,-0.000109069675091,0.00146072264761,-0.000543560658116,1.21846967915e-07,0.0,0.0,0.0,1.21846967915e-07,0.0,0.0,0.0,1.21846967915e-07,0.0418141297996,0.177767530084,9.80557537079,9e-08,0.0,0.0,0.0,9e-08,0.0,0.0,0.0,9e-08
1560476268065304457,10993,1560476268062886464,base_link,-0.00876189582458,-0.00349778605571,-0.591206941195,-0.806464826074,1.0,0.0,0.0,0.0,1.0,0.0,0.0,0.0,1.0,-0.000548568437807,-0.000677233561873,-0.000532011792529,1.21846967915e-07,0.0,0.0,0.0,1.21846967915e-07,0.0,0.0,0.0,1.21846967915e-07,0.0641618669033,0.153880745173,9.80856895447,9e-08,0.0,0.0,0.0,9e-08,0.0,0.0,0.0,9e-08
1560476268085950797,10994,1560476268082886464,base_link,-0.00876855403883,-0.00349409260884,-0.591218531579,-0.80645618597,1.0,0.0,0.0,0.0,1.0,0.0,0.0,0.0,1.0,0.000343046966009,0.000408193154726,0.00180123082828,1.21846967915e-07,0.0,0.0,0.0,1.21846967915e-07,0.0,0.0,0.0,1.21846967915e-07,0.0585029497743,0.174925297499,9.80782318115,9e-08,0.0,0.0,0.0,9e-08,0.0,0.0,0.0,9e-08
1560476268105437995,10995,1560476268102886464,base_link,-0.00875990998362,-0.00350533528068,-0.591226613237,-0.806450295948,1.0,0.0,0.0,0.0,1.0,0.0,0.0,0.0,1.0,-0.000859360501636,0.00135535746813,-0.000532330828719,1.21846967915e-07,0.0,0.0,0.0,1.21846967915e-07,0.0,0.0,0.0,1.21846967915e-07,0.0601706281304,0.221112757921,9.79181575775,9e-08,0.0,0.0,0.0,9e-08,0.0,0.0,0.0,9e-08
1560476268125681535,10996,1560476268122886464,base_link,-0.00874995048575,-0.00350767673568,-0.591224695555,-0.806451792161,1.0,0.0,0.0,0.0,1.0,0.0,0.0,0.0,1.0,-0.00170969218016,0.000284619745798,-0.00041208480252,1.21846967915e-07,0.0,0.0,0.0,1.21846967915e-07,0.0,0.0,0.0,1.21846967915e-07,0.0485458485782,0.142499729991,9.76812934875,9e-08,0.0,0.0,0.0,9e-08,0.0,0.0,0.0,9e-08
1560476268145432337,10997,1560476268142884416,base_link,-0.00876946480589,-0.00350051671051,-0.591226139085,-0.806450517219,1.0,0.0,0.0,0.0,1.0,0.0,0.0,0.0,1.0,0.000655720941722,-0.0024712937884,0.0013850836549,1.21846967915e-07,0.0,0.0,0.0,1.21846967915e-07,0.0,0.0,0.0,1.21846967915e-07,0.0357817858458,0.17349113524,9.82102298737,9e-08,0.0,0.0,0.0,9e-08,0.0,0.0,0.0,9e-08
1560476268166448776,10998,1560476268162884416,base_link,-0.00876976971199,-0.00350194772773,-0.591229700494,-0.806447967335,1.0,0.0,0.0,0.0,1.0,0.0,0.0,0.0,1.0,-0.000855145510286,0.00113918818533,-0.000207230419619,1.21846967915e-07,0.0,0.0,0.0,1.21846967915e-07,0.0,0.0,0.0,1.21846967915e-07,0.0375034436584,0.191552728415,9.81407165527,9e-08,0.0,0.0,0.0,9e-08,0.0,0.0,0.0,9e-08
1560476268185567554,10999,1560476268182884416,base_link,-0.00875872065224,-0.00350009985184,-0.59122967942,-0.806448072702,1.0,0.0,0.0,0.0,1.0,0.0,0.0,0.0,1.0,-0.000111902700155,-0.000884046836291,-0.00052804662846,1.21846967915e-07,0.0,0.0,0.0,1.21846967915e-07,0.0,0.0,0.0,1.21846967915e-07,0.0239398032427,0.177294999361,9.82948112488,9e-08,0.0,0.0,0.0,9e-08,0.0,0.0,0.0,9e-08
1560476268205718389,11000,1560476268202884416,base_link,-0.00876874896801,-0.00349485520338,-0.591237697858,-0.806442161606,1.0,0.0,0.0,0.0,1.0,0.0,0.0,0.0,1.0,-0.00116915814579,0.000186815625057,0.000118870812003,1.21846967915e-07,0.0,0.0,0.0,1.21846967915e-07,0.0,0.0,0.0,1.21846967915e-07,0.0502865538001,0.195072486997,9.83653450012,9e-08,0.0,0.0,0.0,9e-08,0.0,0.0,0.0,9e-08
1560476268225675372,11001,1560476268222884416,base_link,-0.00876435301878,-0.00349937891024,-0.59123884636,-0.806441265986,1.0,0.0,0.0,0.0,1.0,0.0,0.0,0.0,1.0,-0.00160830293316,7.08542647772e-05,-0.000727370206732,1.21846967915e-07,0.0,0.0,0.0,1.21846967915e-07,0.0,0.0,0.0,1.21846967915e-07,0.0318995155394,0.180080741644,9.81503295898,9e-08,0.0,0.0,0.0,9e-08,0.0,0.0,0.0,9e-08
1560476268246853309,11002,1560476268242882624,base_link,-0.00876377860333,-0.00349615747514,-0.591240437403,-0.806440264998,1.0,0.0,0.0,0.0,1.0,0.0,0.0,0.0,1.0,-0.000201635004487,-0.00119840959087,0.000757249945309,1.21846967915e-07,0.0,0.0,0.0,1.21846967915e-07,0.0,0.0,0.0,1.21846967915e-07,0.0162132680416,0.176386684179,9.8153591156,9e-08,0.0,0.0,0.0,9e-08,0.0,0.0,0.0,9e-08
1560476268266139138,11003,1560476268262882624,base_link,-0.00877683375429,-0.00349710956586,-0.591249983665,-0.806432994667,1.0,0.0,0.0,0.0,1.0,0.0,0.0,0.0,1.0,-0.000840061111376,-0.000556388986297,0.00107670202851,1.21846967915e-07,0.0,0.0,0.0,1.21846967915e-07,0.0,0.0,0.0,1.21846967915e-07,0.0471239835024,0.204360976815,9.81592845917,9e-08,0.0,0.0,0.0,9e-08,0.0,0.0,0.0,9e-08
1560476268286657752,11004,1560476268282882624,base_link,-0.00876903444705,-0.0034986500661,-0.591253871711,-0.806430286732,1.0,0.0,0.0,0.0,1.0,0.0,0.0,0.0,1.0,0.000626615365036,0.00273160636425,-0.000349679612555,1.21846967915e-07,0.0,0.0,0.0,1.21846967915e-07,0.0,0.0,0.0,1.21846967915e-07,0.0523958653212,0.154434919357,9.82903003693,9e-08,0.0,0.0,0.0,9e-08,0.0,0.0,0.0,9e-08
1560476268305399700,11005,1560476268302882624,base_link,-0.00876480675595,-0.00350139866624,-0.591257833515,-0.806427420746,1.0,0.0,0.0,0.0,1.0,0.0,0.0,0.0,1.0,-0.00114928535186,0.000191020604689,0.00160872761626,1.21846967915e-07,0.0,0.0,0.0,1.21846967915e-07,0.0,0.0,0.0,1.21846967915e-07,0.0282498039305,0.19531673193,9.79536724091,9e-08,0.0,0.0,0.0,9e-08,0.0,0.0,0.0,9e-08
1560476268326775649,11006,1560476268322882624,base_link,-0.00877025983374,-0.00349617344485,-0.591270108785,-0.806418348637,1.0,0.0,0.0,0.0,1.0,0.0,0.0,0.0,1.0,-0.000730722094886,0.000505919568241,0.00107032759115,1.21846967915e-07,0.0,0.0,0.0,1.21846967915e-07,0.0,0.0,0.0,1.21846967915e-07,0.048133648932,0.205375775695,9.82060623169,9e-08,0.0,0.0,0.0,9e-08,0.0,0.0,0.0,9e-08
1560476268345798691,11007,1560476268342880576,base_link,-0.00877433375471,-0.0034963905999,-0.591268707402,-0.806419328551,1.0,0.0,0.0,0.0,1.0,0.0,0.0,0.0,1.0,-0.000120599856018,0.000497854081914,-0.00106633466203,1.21846967915e-07,0.0,0.0,0.0,1.21846967915e-07,0.0,0.0,0.0,1.21846967915e-07,0.0621729977429,0.194502979517,9.84229660034,9e-08,0.0,0.0,0.0,9e-08,0.0,0.0,0.0,9e-08
1560476268366765916,11008,1560476268362880576,base_link,-0.00878207362831,-0.00349917558462,-0.591268665255,-0.806419286404,1.0,0.0,0.0,0.0,1.0,0.0,0.0,0.0,1.0,0.0022554656025,0.00146289123222,0.00123887322843,1.21846967915e-07,0.0,0.0,0.0,1.21846967915e-07,0.0,0.0,0.0,1.21846967915e-07,0.0503252148628,0.133054226637,9.80417346954,9e-08,0.0,0.0,0.0,9e-08,0.0,0.0,0.0,9e-08
1560476268385355757,11009,1560476268382880576,base_link,-0.00877969644727,-0.00349750271694,-0.59127278511,-0.806416262368,1.0,0.0,0.0,0.0,1.0,0.0,0.0,0.0,1.0,0.000652568414807,0.000718153605703,0.00105117366184,1.21846967915e-07,0.0,0.0,0.0,1.21846967915e-07,0.0,0.0,0.0,1.21846967915e-07,0.0562496595085,0.164321243763,9.78604602814,9e-08,0.0,0.0,0.0,9e-08,0.0,0.0,0.0,9e-08
1560476268405853740,11010,1560476268402880576,base_link,-0.00877927086288,-0.00350202708234,-0.591274344543,-0.806415208697,1.0,0.0,0.0,0.0,1.0,0.0,0.0,0.0,1.0,0.000940823694691,0.00166571396403,-0.00108588417061,1.21846967915e-07,0.0,0.0,0.0,1.21846967915e-07,0.0,0.0,0.0,1.21846967915e-07,0.0880970954895,0.196495011449,9.74666881561,9e-08,0.0,0.0,0.0,9e-08,0.0,0.0,0.0,9e-08
1560476268425480240,11011,1560476268422880576,base_link,-0.00877805206163,-0.0034954381799,-0.591274291859,-0.806415177087,1.0,0.0,0.0,0.0,1.0,0.0,0.0,0.0,1.0,0.000972831039689,-0.0017280196771,0.000850161537528,1.21846967915e-07,0.0,0.0,0.0,1.21846967915e-07,0.0,0.0,0.0,1.21846967915e-07,0.0722112357616,0.175115004182,9.84039211273,9e-08,0.0,0.0,0.0,9e-08,0.0,0.0,0.0,9e-08
1560476268445624621,11012,1560476268442878784,base_link,-0.00877855074446,-0.00350192533721,-0.59127364912,-0.806415651239,1.0,0.0,0.0,0.0,1.0,0.0,0.0,0.0,1.0,0.000637040531728,7.23033444956e-05,-0.000223908369662,1.21846967915e-07,0.0,0.0,0.0,1.21846967915e-07,0.0,0.0,0.0,1.21846967915e-07,0.0765934735537,0.163308441639,9.77384567261,9e-08,0.0,0.0,0.0,9e-08,0.0,0.0,0.0,9e-08
1560476268466041711,11013,1560476268462878784,base_link,-0.00877322822311,-0.00350550666689,-0.591275440361,-0.806414450053,1.0,0.0,0.0,0.0,1.0,0.0,0.0,0.0,1.0,0.000199277332285,0.00104061118327,-0.000652971910313,1.21846967915e-07,0.0,0.0,0.0,1.21846967915e-07,0.0,0.0,0.0,1.21846967915e-07,0.0411399826407,0.155672326684,9.74069309235,9e-08,0.0,0.0,0.0,9e-08,0.0,0.0,0.0,9e-08
1560476268485724792,11014,1560476268479878784,base_link,-0.00877775291779,-0.00350231618338,-0.591280476909,-0.806410762204,1.0,0.0,0.0,0.0,1.0,0.0,0.0,0.0,1.0,0.000170523533598,-0.000420978933107,0.00106300902553,1.21846967915e-07,0.0,0.0,0.0,1.21846967915e-07,0.0,0.0,0.0,1.21846967915e-07,0.0605748780072,0.140409588814,9.77442455292,9e-08,0.0,0.0,0.0,9e-08,0.0,0.0,0.0,9e-08
1560476268505052087,11015,1560476268499878784,base_link,-0.00877968377029,-0.00350018645044,-0.591282794986,-0.80640894989,1.0,0.0,0.0,0.0,1.0,0.0,0.0,0.0,1.0,-0.00063976488309,-0.00152382184751,-9.13209514692e-05,1.21846967915e-07,0.0,0.0,0.0,1.21846967915e-07,0.0,0.0,0.0,1.21846967915e-07,0.0785343050957,0.20392781496,9.81288051605,9e-08,0.0,0.0,0.0,9e-08,0.0,0.0,0.0,9e-08
1560476268528289081,11016,1560476268523876480,base_link,-0.00877297715302,-0.00350302346018,-0.591281699168,-0.80640987712,1.0,0.0,0.0,0.0,1.0,0.0,0.0,0.0,1.0,0.000425707403338,-0.000778628920671,-2.7347705327e-06,1.21846967915e-07,0.0,0.0,0.0,1.21846967915e-07,0.0,0.0,0.0,1.21846967915e-07,0.0400729179382,0.162607476115,9.82211589813,9e-08,0.0,0.0,0.0,9e-08,0.0,0.0,0.0,9e-08
1560476268544570550,11017,1560476268539876480,base_link,-0.00878125061231,-0.00349663343818,-0.591284312273,-0.806407769778,1.0,0.0,0.0,0.0,1.0,0.0,0.0,0.0,1.0,0.000309425842715,-0.00142128649168,-0.000743013224564,1.21846967915e-07,0.0,0.0,0.0,1.21846967915e-07,0.0,0.0,0.0,1.21846967915e-07,0.0531071834266,0.174392551184,9.79923820496,9e-08,0.0,0.0,0.0,9e-08,0.0,0.0,0.0,9e-08
1560476268567910507,11018,1560476268563876480,base_link,-0.00878447023641,-0.00349105359057,-0.591286546056,-0.806406126051,1.0,0.0,0.0,0.0,1.0,0.0,0.0,0.0,1.0,-0.000112069988973,6.9753092248e-05,-0.000424954894697,1.21846967915e-07,0.0,0.0,0.0,1.21846967915e-07,0.0,0.0,0.0,1.21846967915e-07,0.0831097215414,0.143179535866,9.83489513397,9e-08,0.0,0.0,0.0,9e-08,0.0,0.0,0.0,9e-08
1560476268587021016,11019,1560476268583876480,base_link,-0.00876596118447,-0.00348792945542,-0.591283511483,-0.806408654862,1.0,0.0,0.0,0.0,1.0,0.0,0.0,0.0,1.0,-0.000850500655361,-0.000353957584593,1.22426426969e-05,1.21846967915e-07,0.0,0.0,0.0,1.21846967915e-07,0.0,0.0,0.0,1.21846967915e-07,0.0569618418813,0.172020152211,9.80209350586,9e-08,0.0,0.0,0.0,9e-08,0.0,0.0,0.0,9e-08
1560476268606559648,11020,1560476268599876480,base_link,-0.00877498637231,-0.00348904321882,-0.591282552642,-0.806409192234,1.0,0.0,0.0,0.0,1.0,0.0,0.0,0.0,1.0,0.000202207098482,0.000601690495387,-0.000646902306471,1.21846967915e-07,0.0,0.0,0.0,1.21846967915e-07,0.0,0.0,0.0,1.21846967915e-07,0.0599701106548,0.163119345903,9.81276416779,9e-08,0.0,0.0,0.0,9e-08,0.0,0.0,0.0,9e-08
1560476268625839624,11021,1560476268619876480,base_link,-0.00876590339719,-0.00349378243437,-0.591288526957,-0.806404903792,1.0,0.0,0.0,0.0,1.0,0.0,0.0,0.0,1.0,-0.00106064369902,0.0011400480289,-9.35599091463e-05,1.21846967915e-07,0.0,0.0,0.0,1.21846967915e-07,0.0,0.0,0.0,1.21846967915e-07,0.0350762791932,0.154853999615,9.80405426025,9e-08,0.0,0.0,0.0,9e-08,0.0,0.0,0.0,9e-08
1560476268647442240,11022,1560476268643874176,base_link,-0.00876910540522,-0.00349423008,-0.591291645824,-0.806402543569,1.0,0.0,0.0,0.0,1.0,0.0,0.0,0.0,1.0,-0.000947592314333,-0.00194673729129,0.00087425892707,1.21846967915e-07,0.0,0.0,0.0,1.21846967915e-07,0.0,0.0,0.0,1.21846967915e-07,0.0619314722717,0.154943436384,9.82584953308,9e-08,0.0,0.0,0.0,9e-08,0.0,0.0,0.0,9e-08
1560476268664461146,11023,1560476268659874176,base_link,-0.0087755787331,-0.0034904936631,-0.591292573055,-0.806401869219,1.0,0.0,0.0,0.0,1.0,0.0,0.0,0.0,1.0,-0.00180429627653,0.000817441614345,0.000661044381559,1.21846967915e-07,0.0,0.0,0.0,1.21846967915e-07,0.0,0.0,0.0,1.21846967915e-07,0.041420314461,0.187444344163,9.7863035202,9e-08,0.0,0.0,0.0,9e-08,0.0,0.0,0.0,9e-08
1560476268685794848,11024,1560476268679874176,base_link,-0.00877772904555,-0.00348761236624,-0.591290950401,-0.806402986111,1.0,0.0,0.0,0.0,1.0,0.0,0.0,0.0,1.0,-0.000212016253499,0.000707158411387,0.00010604725685,1.21846967915e-07,0.0,0.0,0.0,1.21846967915e-07,0.0,0.0,0.0,1.21846967915e-07,0.0609479993582,0.181369364262,9.82757854462,9e-08,0.0,0.0,0.0,9e-08,0.0,0.0,0.0,9e-08
1560476268707089097,11025,1560476268703874176,base_link,-0.00877375440018,-0.00348665978161,-0.591293721557,-0.806401057892,1.0,0.0,0.0,0.0,1.0,0.0,0.0,0.0,1.0,0.00055753684137,-0.00130497128703,0.00180861772969,1.21846967915e-07,0.0,0.0,0.0,1.21846967915e-07,0.0,0.0,0.0,1.21846967915e-07,0.0270786508918,0.175568699837,9.78380775452,9e-08,0.0,0.0,0.0,9e-08,0.0,0.0,0.0,9e-08
1560476268725131265,11026,1560476268719874176,base_link,-0.00877533803508,-0.00349111499984,-0.591298947766,-0.806397180382,1.0,0.0,0.0,0.0,1.0,0.0,0.0,0.0,1.0,0.000552180223167,0.000712598091923,0.00137235480361,1.21846967915e-07,0.0,0.0,0.0,1.21846967915e-07,0.0,0.0,0.0,1.21846967915e-07,0.0560232512653,0.183304458857,9.81301307678,9e-08,0.0,0.0,0.0,9e-08,0.0,0.0,0.0,9e-08
1560476268746640712,11027,1560476268743871616,base_link,-0.00877320138742,-0.003494102487,-0.591304131828,-0.806393429313,1.0,0.0,0.0,0.0,1.0,0.0,0.0,0.0,1.0,-0.000629152287729,0.00070947734639,0.00106970546767,1.21846967915e-07,0.0,0.0,0.0,1.21846967915e-07,0.0,0.0,0.0,1.21846967915e-07,0.0639718994498,0.183246985078,9.82489299774,9e-08,0.0,0.0,0.0,9e-08,0.0,0.0,0.0,9e-08
1560476268767346407,11028,1560476268763871616,base_link,-0.0087808810042,-0.00348573271558,-0.591305185499,-0.806392544229,1.0,0.0,0.0,0.0,1.0,0.0,0.0,0.0,1.0,-0.000122843062854,-0.00184862327296,-0.000838863779791,1.21846967915e-07,0.0,0.0,0.0,1.21846967915e-07,0.0,0.0,0.0,1.21846967915e-07,0.0288484357297,0.187982171774,9.87663459778,9e-08,0.0,0.0,0.0,9e-08,0.0,0.0,0.0,9e-08
1560476268786997566,11029,1560476268783871616,base_link,-0.00878211709225,-0.00348396715775,-0.591304795641,-0.806392849794,1.0,0.0,0.0,0.0,1.0,0.0,0.0,0.0,1.0,-0.00118585908785,0.000381668913178,-0.00115608412307,1.21846967915e-07,0.0,0.0,0.0,1.21846967915e-07,0.0,0.0,0.0,1.21846967915e-07,0.0534693412483,0.187081843615,9.79709148407,9e-08,0.0,0.0,0.0,9e-08,0.0,0.0,0.0,9e-08
1560476268807218268,11030,1560476268803871616,base_link,-0.00877563108739,-0.00348498856029,-0.591298852935,-0.806397190919,1.0,0.0,0.0,0.0,1.0,0.0,0.0,0.0,1.0,0.000314743752824,0.00155657390133,-0.000330311595462,1.21846967915e-07,0.0,0.0,0.0,1.21846967915e-07,0.0,0.0,0.0,1.21846967915e-07,0.0577845536172,0.169462800026,9.78532409668,9e-08,0.0,0.0,0.0,9e-08,0.0,0.0,0.0,9e-08
1560476268827214501,11031,1560476268823868544,base_link,-0.00878185976598,-0.00347761664843,-0.591305786092,-0.806392112224,1.0,0.0,0.0,0.0,1.0,0.0,0.0,0.0,1.0,-8.20233981358e-05,-0.00120016955771,0.00181613047607,1.21846967915e-07,0.0,0.0,0.0,1.21846967915e-07,0.0,0.0,0.0,1.21846967915e-07,0.0404565669596,0.168662428856,9.82087612152,9e-08,0.0,0.0,0.0,9e-08,0.0,0.0,0.0,9e-08
1560476268847339720,11032,1560476268843868544,base_link,-0.008789753739,-0.00347510298404,-0.591312065972,-0.806387433923,1.0,0.0,0.0,0.0,1.0,0.0,0.0,0.0,1.0,-0.000950516725425,-0.00153031724039,0.000340484431945,1.21846967915e-07,0.0,0.0,0.0,1.21846967915e-07,0.0,0.0,0.0,1.21846967915e-07,0.027866024524,0.219836771488,9.80241298676,9e-08,0.0,0.0,0.0,9e-08,0.0,0.0,0.0,9e-08
1560476268867960628,11033,1560476268864868544,base_link,-0.00878400546862,-0.00347839224922,-0.59131217134,-0.80638741285,1.0,0.0,0.0,0.0,1.0,0.0,0.0,0.0,1.0,0.00157944287639,0.00080021424219,-0.000348492350895,1.21846967915e-07,0.0,0.0,0.0,1.21846967915e-07,0.0,0.0,0.0,1.21846967915e-07,0.00965382903814,0.183673501015,9.80414199829,9e-08,0.0,0.0,0.0,9e-08,0.0,0.0,0.0,9e-08
1560476268888342633,11034,1560476268884868544,base_link,-0.00878634824071,-0.00348042748102,-0.591318124582,-0.806383145482,1.0,0.0,0.0,0.0,1.0,0.0,0.0,0.0,1.0,-0.00189733691514,-3.3249729313e-05,0.00130406115204,1.21846967915e-07,0.0,0.0,0.0,1.21846967915e-07,0.0,0.0,0.0,1.21846967915e-07,0.0603753179312,0.199517950416,9.8141040802,9e-08,0.0,0.0,0.0,9e-08,0.0,0.0,0.0,9e-08
1560476268904229901,11035,1560476268900868544,base_link,-0.00879294208223,-0.00347772958881,-0.591318777858,-0.806382492205,1.0,0.0,0.0,0.0,1.0,0.0,0.0,0.0,1.0,0.000741243595257,0.000273207726423,-0.000545278075151,1.21846967915e-07,0.0,0.0,0.0,1.21846967915e-07,0.0,0.0,0.0,1.21846967915e-07,0.0464222170413,0.195312291384,9.83020496368,9e-08,0.0,0.0,0.0,9e-08,0.0,0.0,0.0,9e-08
1560476268928307160,11036,1560476268924865472,base_link,-0.00878897122349,-0.00347616340533,-0.591327491719,-0.806376138568,1.0,0.0,0.0,0.0,1.0,0.0,0.0,0.0,1.0,-0.000735639827326,0.000920880527701,0.000644531217404,1.21846967915e-07,0.0,0.0,0.0,1.21846967915e-07,0.0,0.0,0.0,1.21846967915e-07,0.0485616996884,0.176123961806,9.78341293335,9e-08,0.0,0.0,0.0,9e-08,0.0,0.0,0.0,9e-08
1560476268944565731,11037,1560476268940865472,base_link,-0.00878461610402,-0.00347073913886,-0.591329546378,-0.806374673965,1.0,0.0,0.0,0.0,1.0,0.0,0.0,0.0,1.0,-0.000103588448837,-3.89273627661e-05,0.000215892388951,1.21846967915e-07,0.0,0.0,0.0,1.21846967915e-07,0.0,0.0,0.0,1.21846967915e-07,0.0662241876125,0.168190091848,9.82212162018,9e-08,0.0,0.0,0.0,9e-08,0.0,0.0,0.0,9e-08
1560476268968028051,11038,1560476268964865472,base_link,-0.00877477465025,-0.0034619977837,-0.591335847332,-0.806370311766,1.0,0.0,0.0,0.0,1.0,0.0,0.0,0.0,1.0,-0.000954619084951,0.00155619508587,6.57379860058e-06,1.21846967915e-07,0.0,0.0,0.0,1.21846967915e-07,0.0,0.0,0.0,1.21846967915e-07,0.0844771116972,0.210425049067,9.79715442657,9e-08,0.0,0.0,0.0,9e-08,0.0,0.0,0.0,9e-08
1560476268984586325,11039,1560476268980865472,base_link,-0.00876820698588,-0.00346342484964,-0.591333718916,-0.806371850126,1.0,0.0,0.0,0.0,1.0,0.0,0.0,0.0,1.0,9.92541608866e-05,-0.000574559497181,-0.000529870914761,1.21846967915e-07,0.0,0.0,0.0,1.21846967915e-07,0.0,0.0,0.0,1.21846967915e-07,0.0409412682056,0.18801382184,9.78430557251,9e-08,0.0,0.0,0.0,9e-08,0.0,0.0,0.0,9e-08
1560476269005543216,11040,1560476269000865472,base_link,-0.00877559766625,-0.00345845893015,-0.591336658658,-0.806369584733,1.0,0.0,0.0,0.0,1.0,0.0,0.0,0.0,1.0,0.00127679482102,0.000172149855644,-1.6350124497e-05,1.21846967915e-07,0.0,0.0,0.0,1.21846967915e-07,0.0,0.0,0.0,1.21846967915e-07,0.0722235143185,0.222667127848,9.77146053314,9e-08,0.0,0.0,0.0,9e-08,0.0,0.0,0.0,9e-08
1560476269024921577,11041,1560476269020865472,base_link,-0.00876993303103,-0.00345826383634,-0.591337164421,-0.806369331852,1.0,0.0,0.0,0.0,1.0,0.0,0.0,0.0,1.0,0.000642435858026,6.90644956194e-05,0.000416998402216,1.21846967915e-07,0.0,0.0,0.0,1.21846967915e-07,0.0,0.0,0.0,1.21846967915e-07,0.060091022402,0.180674672127,9.75727653503,9e-08,0.0,0.0,0.0,9e-08,0.0,0.0,0.0,9e-08
1560476269045216570,11042,1560476269040863424,base_link,-0.00877961034258,-0.00346798988017,-0.591334688293,-0.806370965042,1.0,0.0,0.0,0.0,1.0,0.0,0.0,0.0,1.0,0.00138413615059,0.000383726437576,-1.79057824425e-05,1.21846967915e-07,0.0,0.0,0.0,1.21846967915e-07,0.0,0.0,0.0,1.21846967915e-07,0.0674718767405,0.169828742743,9.77715206146,9e-08,0.0,0.0,0.0,9e-08,0.0,0.0,0.0,9e-08
1560476269064664128,11043,1560476269060863424,base_link,-0.00878476921562,-0.00345682244704,-0.591347216444,-0.80636180864,1.0,0.0,0.0,0.0,1.0,0.0,0.0,0.0,1.0,0.0013017518213,-0.00237572309561,0.00159299117513,1.21846967915e-07,0.0,0.0,0.0,1.21846967915e-07,0.0,0.0,0.0,1.21846967915e-07,0.0523797795177,0.174228087068,9.78541278839,9e-08,0.0,0.0,0.0,9e-08,0.0,0.0,0.0,9e-08
1560476269085482414,11044,1560476269080863424,base_link,-0.00878673414779,-0.00345737842324,-0.591350366921,-0.8063595011,1.0,0.0,0.0,0.0,1.0,0.0,0.0,0.0,1.0,-0.0020089824684,-0.000250115292147,0.00109442905523,1.21846967915e-07,0.0,0.0,0.0,1.21846967915e-07,0.0,0.0,0.0,1.21846967915e-07,0.0522920787334,0.158594563603,9.81663131714,9e-08,0.0,0.0,0.0,9e-08,0.0,0.0,0.0,9e-08
1560476269104308606,11045,1560476269100863424,base_link,-0.00876922410787,-0.00345824704345,-0.591353854573,-0.80635719356,1.0,0.0,0.0,0.0,1.0,0.0,0.0,0.0,1.0,-0.00115848891437,-0.000803568575066,0.000121419667266,1.21846967915e-07,0.0,0.0,0.0,1.21846967915e-07,0.0,0.0,0.0,1.21846967915e-07,0.06382714957,0.164502084255,9.75103092194,9e-08,0.0,0.0,0.0,9e-08,0.0,0.0,0.0,9e-08
1560476269123885753,11046,1560476269120863424,base_link,-0.00876595212948,-0.00345077816091,-0.591354223358,-0.806356993362,1.0,0.0,0.0,0.0,1.0,0.0,0.0,0.0,1.0,-0.00140305899549,0.000275786675047,-0.00125376344658,1.21846967915e-07,0.0,0.0,0.0,1.21846967915e-07,0.0,0.0,0.0,1.21846967915e-07,0.0484046973288,0.184428304434,9.84660243988,9e-08,0.0,0.0,0.0,9e-08,0.0,0.0,0.0,9e-08
1560476269146224373,11047,1560476269140860096,base_link,-0.00876453576488,-0.00345015172045,-0.591357026123,-0.80635494924,1.0,0.0,0.0,0.0,1.0,0.0,0.0,0.0,1.0,0.000538918888196,0.00112575595267,0.00104704126716,1.21846967915e-07,0.0,0.0,0.0,1.21846967915e-07,0.0,0.0,0.0,1.21846967915e-07,0.0573690161109,0.171420872211,9.80503940582,9e-08,0.0,0.0,0.0,9e-08,0.0,0.0,0.0,9e-08
1560476269167607759,11048,1560476269164860096,base_link,-0.00877046513499,-0.00344449367067,-0.591358511799,-0.806353800738,1.0,0.0,0.0,0.0,1.0,0.0,0.0,0.0,1.0,0.000963061233051,-0.000573144177906,0.000412081833929,1.21846967915e-07,0.0,0.0,0.0,1.21846967915e-07,0.0,0.0,0.0,1.21846967915e-07,0.0606644526124,0.167620122433,9.80507850647,9e-08,0.0,0.0,0.0,9e-08,0.0,0.0,0.0,9e-08
1560476269185653340,11049,1560476269180860096,base_link,-0.00877014425918,-0.00345228375829,-0.591364644166,-0.806349269952,1.0,0.0,0.0,0.0,1.0,0.0,0.0,0.0,1.0,-0.00118818855844,0.00239474978298,-0.00158393452875,1.21846967915e-07,0.0,0.0,0.0,1.21846967915e-07,0.0,0.0,0.0,1.21846967915e-07,0.030280912295,0.182639956474,9.83233070374,9e-08,0.0,0.0,0.0,9e-08,0.0,0.0,0.0,9e-08
1560476269208149750,11050,1560476269200860096,base_link,-0.00876738298206,-0.00346495349608,-0.591365286905,-0.806348711506,1.0,0.0,0.0,0.0,1.0,0.0,0.0,0.0,1.0,0.000846553593874,0.00144004879985,-1.76468747668e-05,1.21846967915e-07,0.0,0.0,0.0,1.21846967915e-07,0.0,0.0,0.0,1.21846967915e-07,0.0510654225945,0.199166327715,9.81728553772,9e-08,0.0,0.0,0.0,9e-08,0.0,0.0,0.0,9e-08
1560476269224183220,11051,1560476269220860096,base_link,-0.00876525621257,-0.00347754190363,-0.591372652067,-0.806343369393,1.0,0.0,0.0,0.0,1.0,0.0,0.0,0.0,1.0,0.000874852703419,0.00177142163739,0.00179167673923,1.21846967915e-07,0.0,0.0,0.0,1.21846967915e-07,0.0,0.0,0.0,1.21846967915e-07,0.0389097929001,0.152958258986,9.81175518036,9e-08,0.0,0.0,0.0,9e-08,0.0,0.0,0.0,9e-08
1560476269246140870,11052,1560476269240858304,base_link,-0.00876953247133,-0.00348169369748,-0.591375897374,-0.806340882729,1.0,0.0,0.0,0.0,1.0,0.0,0.0,0.0,1.0,0.00105729256757,6.25134562142e-05,-0.000756765482947,1.21846967915e-07,0.0,0.0,0.0,1.21846967915e-07,0.0,0.0,0.0,1.21846967915e-07,0.045770406723,0.200521290302,9.8194732666,9e-08,0.0,0.0,0.0,9e-08,0.0,0.0,0.0,9e-08
1560476269265347428,11053,1560476269260858304,base_link,-0.00876216187657,-0.00348258026302,-0.591375539126,-0.806341240978,1.0,0.0,0.0,0.0,1.0,0.0,0.0,0.0,1.0,-0.00170530471951,0.00176399177872,-0.000196051347302,1.21846967915e-07,0.0,0.0,0.0,1.21846967915e-07,0.0,0.0,0.0,1.21846967915e-07,0.0577116347849,0.179983258247,9.78814411163,9e-08,0.0,0.0,0.0,9e-08,0.0,0.0,0.0,9e-08
1560476269288050139,11054,1560476269280858304,base_link,-0.00876702967293,-0.00349131141074,-0.591380533528,-0.806337510981,1.0,0.0,0.0,0.0,1.0,0.0,0.0,0.0,1.0,0.00179659575224,0.000488603312988,-0.000647546083201,1.21846967915e-07,0.0,0.0,0.0,1.21846967915e-07,0.0,0.0,0.0,1.21846967915e-07,0.0375419929624,0.20269048214,9.77056503296,9e-08,0.0,0.0,0.0,9e-08,0.0,0.0,0.0,9e-08
1560476269304048164,11055,1560476269300858304,base_link,-0.00877519562483,-0.00348826366676,-0.591380912849,-0.80633713166,1.0,0.0,0.0,0.0,1.0,0.0,0.0,0.0,1.0,-0.000107085215859,-0.00014833471505,4.77803405374e-06,1.21846967915e-07,0.0,0.0,0.0,1.21846967915e-07,0.0,0.0,0.0,1.21846967915e-07,0.0467375069857,0.180108815432,9.82469844818,9e-08,0.0,0.0,0.0,9e-08,0.0,0.0,0.0,9e-08
1560476269325520781,11056,1560476269320858304,base_link,-0.00875721291459,-0.00348956807879,-0.59138251443,-0.806336120135,1.0,0.0,0.0,0.0,1.0,0.0,0.0,0.0,1.0,-0.00138268328737,0.00134729337879,0.000338215206284,1.21846967915e-07,0.0,0.0,0.0,1.21846967915e-07,0.0,0.0,0.0,1.21846967915e-07,0.0389919802547,0.195543915033,9.77616882324,9e-08,0.0,0.0,0.0,9e-08,0.0,0.0,0.0,9e-08
1560476269344364830,11057,1560476269340856256,base_link,-0.00876342792838,-0.00347406100199,-0.591382735701,-0.806335898864,1.0,0.0,0.0,0.0,1.0,0.0,0.0,0.0,1.0,-0.00180967431515,-0.00259925657883,3.92303918488e-05,1.21846967915e-07,0.0,0.0,0.0,1.21846967915e-07,0.0,0.0,0.0,1.21846967915e-07,0.0418982431293,0.174390971661,9.81675624847,9e-08,0.0,0.0,0.0,9e-08,0.0,0.0,0.0,9e-08
1560476269366525465,11058,1560476269362856256,base_link,-0.00876903444705,-0.00347444592126,-0.591383515417,-0.806335372029,1.0,0.0,0.0,0.0,1.0,0.0,0.0,0.0,1.0,0.000210228114156,0.000381222111173,-0.000215280713746,1.21846967915e-07,0.0,0.0,0.0,1.21846967915e-07,0.0,0.0,0.0,1.21846967915e-07,0.0357208587229,0.156759649515,9.81368160248,9e-08,0.0,0.0,0.0,9e-08,0.0,0.0,0.0,9e-08
1560476269385706386,11059,1560476269382856256,base_link,-0.00875064986002,-0.00348295365776,-0.591386170669,-0.806333559714,1.0,0.0,0.0,0.0,1.0,0.0,0.0,0.0,1.0,-0.000521253910847,0.00262118712999,0.0009520034655,1.21846967915e-07,0.0,0.0,0.0,1.21846967915e-07,0.0,0.0,0.0,1.21846967915e-07,0.0658128485084,0.195788025856,9.78762340546,9e-08,0.0,0.0,0.0,9e-08,0.0,0.0,0.0,9e-08
1560476269405602173,11060,1560476269402856256,base_link,-0.00875140800939,-0.00348694098012,-0.591383705078,-0.806335350955,1.0,0.0,0.0,0.0,1.0,0.0,0.0,0.0,1.0,0.000638556433842,-4.24389145337e-05,0.000102725927718,1.21846967915e-07,0.0,0.0,0.0,1.21846967915e-07,0.0,0.0,0.0,1.21846967915e-07,0.0798313394189,0.174147814512,9.83891487122,9e-08,0.0,0.0,0.0,9e-08,0.0,0.0,0.0,9e-08
1560476269425227942,11061,1560476269422856256,base_link,-0.00875860820576,-0.00348235520543,-0.591388688943,-0.806331631496,1.0,0.0,0.0,0.0,1.0,0.0,0.0,0.0,1.0,-0.000933505652938,-0.00164120586123,2.30565201491e-05,1.21846967915e-07,0.0,0.0,0.0,1.21846967915e-07,0.0,0.0,0.0,1.21846967915e-07,0.0665906146169,0.183218300343,9.80975151062,9e-08,0.0,0.0,0.0,9e-08,0.0,0.0,0.0,9e-08
1560476269446853205,11062,1560476269442854464,base_link,-0.00875160343247,-0.00348614759862,-0.591388688943,-0.806331631496,1.0,0.0,0.0,0.0,1.0,0.0,0.0,0.0,1.0,0.000532444333658,0.00176346558146,-1.30510888994e-05,1.21846967915e-07,0.0,0.0,0.0,1.21846967915e-07,0.0,0.0,0.0,1.21846967915e-07,0.0548335984349,0.145907759666,9.82091999054,9e-08,0.0,0.0,0.0,9e-08,0.0,0.0,0.0,9e-08
1560476269465547975,11063,1560476269462854464,base_link,-0.0087545793951,-0.00348006725718,-0.591393894079,-0.806327859353,1.0,0.0,0.0,0.0,1.0,0.0,0.0,0.0,1.0,0.000438184273662,-0.000580720894504,0.000632850860711,1.21846967915e-07,0.0,0.0,0.0,1.21846967915e-07,0.0,0.0,0.0,1.21846967915e-07,0.0772574990988,0.187099695206,9.81725215912,9e-08,0.0,0.0,0.0,9e-08,0.0,0.0,0.0,9e-08
1560476269486333681,11064,1560476269482854464,base_link,-0.0087600342839,-0.00347664990509,-0.591397813736,-0.806324951221,1.0,0.0,0.0,0.0,1.0,0.0,0.0,0.0,1.0,-0.00105439673644,0.000596872763708,0.000762103358284,1.21846967915e-07,0.0,0.0,0.0,1.21846967915e-07,0.0,0.0,0.0,1.21846967915e-07,0.0650650113821,0.177130848169,9.79886436462,9e-08,0.0,0.0,0.0,9e-08,0.0,0.0,0.0,9e-08
1560476269505665631,11065,1560476269502854464,base_link,-0.00874191426712,-0.00348257894593,-0.591399162435,-0.806324108284,1.0,0.0,0.0,0.0,1.0,0.0,0.0,0.0,1.0,-0.00128352548927,-0.000677548290696,0.000444028468337,1.21846967915e-07,0.0,0.0,0.0,1.21846967915e-07,0.0,0.0,0.0,1.21846967915e-07,0.0198030211031,0.180965125561,9.80320453644,9e-08,0.0,0.0,0.0,9e-08,0.0,0.0,0.0,9e-08
1560476269526972405,11066,1560476269522852416,base_link,-0.00875337623428,-0.00347673831469,-0.591406148275,-0.806318892611,1.0,0.0,0.0,0.0,1.0,0.0,0.0,0.0,1.0,7.47534795664e-06,-0.0015277385246,0.00075459596701,1.21846967915e-07,0.0,0.0,0.0,1.21846967915e-07,0.0,0.0,0.0,1.21846967915e-07,0.0375567674637,0.169539645314,9.83020305634,9e-08,0.0,0.0,0.0,9e-08,0.0,0.0,0.0,9e-08
1560476269545243817,11067,1560476269542852416,base_link,-0.00875321867751,-0.00348272925872,-0.591413102505,-0.806313792842,1.0,0.0,0.0,0.0,1.0,0.0,0.0,0.0,1.0,-9.31214453885e-05,0.0024080844596,0.00116531224921,1.21846967915e-07,0.0,0.0,0.0,1.21846967915e-07,0.0,0.0,0.0,1.21846967915e-07,0.0539999231696,0.210360437632,9.81758022308,9e-08,0.0,0.0,0.0,9e-08,0.0,0.0,0.0,9e-08
1560476269565649170,11068,1560476269562852416,base_link,-0.00874466270263,-0.00348373963063,-0.591409235532,-0.806316732585,1.0,0.0,0.0,0.0,1.0,0.0,0.0,0.0,1.0,0.00107345008291,-4.17834962718e-05,0.000304980960209,1.21846967915e-07,0.0,0.0,0.0,1.21846967915e-07,0.0,0.0,0.0,1.21846967915e-07,0.0825698673725,0.12208878994,9.77774333954,9e-08,0.0,0.0,0.0,9e-08,0.0,0.0,0.0,9e-08
1560476269585245104,11069,1560476269582852416,base_link,-0.00876277695714,-0.00347551012918,-0.591411437704,-0.806314867587,1.0,0.0,0.0,0.0,1.0,0.0,0.0,0.0,1.0,0.000958715914749,-0.00186117715202,-1.2848933693e-05,1.21846967915e-07,0.0,0.0,0.0,1.21846967915e-07,0.0,0.0,0.0,1.21846967915e-07,0.067877009511,0.203015804291,9.78055667877,9e-08,0.0,0.0,0.0,9e-08,0.0,0.0,0.0,9e-08
1560476269605572444,11070,1560476269602852416,base_link,-0.00875203214494,-0.00347748576271,-0.591413239482,-0.806313740159,1.0,0.0,0.0,0.0,1.0,0.0,0.0,0.0,1.0,-0.000950805027969,0.0018701935187,4.98088775203e-06,1.21846967915e-07,0.0,0.0,0.0,1.21846967915e-07,0.0,0.0,0.0,1.21846967915e-07,0.0634600818157,0.182719260454,9.77459716797,9e-08,0.0,0.0,0.0,9e-08,0.0,0.0,0.0,9e-08
1560476269624890982,11071,1560476269622852416,base_link,-0.0087405789035,-0.00348398543236,-0.59141664284,-0.806311179738,1.0,0.0,0.0,0.0,1.0,0.0,0.0,0.0,1.0,0.00245373207144,-0.000141997821629,0.000618290621787,1.21846967915e-07,0.0,0.0,0.0,1.21846967915e-07,0.0,0.0,0.0,1.21846967915e-07,0.0720203220844,0.172942832112,9.81448745728,9e-08,0.0,0.0,0.0,9e-08,0.0,0.0,0.0,9e-08
1560476269645649190,11072,1560476269642850368,base_link,-0.00875451699801,-0.00348345003568,-0.591429381725,-0.806301728307,1.0,0.0,0.0,0.0,1.0,0.0,0.0,0.0,1.0,0.000449756364105,-0.000568324350752,0.0020196554251,1.21846967915e-07,0.0,0.0,0.0,1.21846967915e-07,0.0,0.0,0.0,1.21846967915e-07,0.0546153858304,0.173450469971,9.86122512817,9e-08,0.0,0.0,0.0,9e-08,0.0,0.0,0.0,9e-08
1560476269665566115,11073,1560476269662850368,base_link,-0.00874963701857,-0.00347996781696,-0.591436093611,-0.806296955176,1.0,0.0,0.0,0.0,1.0,0.0,0.0,0.0,1.0,-0.00319823506288,0.000694126356393,-0.000379524310119,1.21846967915e-07,0.0,0.0,0.0,1.21846967915e-07,0.0,0.0,0.0,1.21846967915e-07,0.0610120035708,0.180665105581,9.79707431793,9e-08,0.0,0.0,0.0,9e-08,0.0,0.0,0.0,9e-08
1560476269686441002,11074,1560476269682850368,base_link,-0.00874459898845,-0.00347640920707,-0.591443311259,-0.806291676284,1.0,0.0,0.0,0.0,1.0,0.0,0.0,0.0,1.0,-9.1863272246e-05,-0.00078514701454,0.00128352537286,1.21846967915e-07,0.0,0.0,0.0,1.21846967915e-07,0.0,0.0,0.0,1.21846967915e-07,0.0682539641857,0.155803740025,9.84860706329,9e-08,0.0,0.0,0.0,9e-08,0.0,0.0,0.0,9e-08
1560476269705747519,11075,1560476269702850368,base_link,-0.00875029194108,-0.0034696059484,-0.591448189756,-0.806288146485,1.0,0.0,0.0,0.0,1.0,0.0,0.0,0.0,1.0,-0.00136864872184,-0.000787235214375,0.00098239001818,1.21846967915e-07,0.0,0.0,0.0,1.21846967915e-07,0.0,0.0,0.0,1.21846967915e-07,0.0604501515627,0.202826485038,9.83365631104,9e-08,0.0,0.0,0.0,9e-08,0.0,0.0,0.0,9e-08
1560476269724576142,11076,1560476269718850368,base_link,-0.00874411792168,-0.00347147176962,-0.591445818996,-0.806289927189,1.0,0.0,0.0,0.0,1.0,0.0,0.0,0.0,1.0,-0.00151290022768,0.00133012095466,-0.00147166592069,1.21846967915e-07,0.0,0.0,0.0,1.21846967915e-07,0.0,0.0,0.0,1.21846967915e-07,0.0410790666938,0.199691280723,9.77643871307,9e-08,0.0,0.0,0.0,9e-08,0.0,0.0,0.0,9e-08
1560476269746880735,11077,1560476269743846784,base_link,-0.0087366501916,-0.00346615188245,-0.591448094926,-0.806288325609,1.0,0.0,0.0,0.0,1.0,0.0,0.0,0.0,1.0,0.00063579226844,-0.00143292220309,0.000109224522021,1.21846967915e-07,0.0,0.0,0.0,1.21846967915e-07,0.0,0.0,0.0,1.21846967915e-07,0.0819737836719,0.178565502167,9.83515644073,9e-08,0.0,0.0,0.0,9e-08,0.0,0.0,0.0,9e-08
1560476269766796833,11078,1560476269763846784,base_link,-0.00874890323535,-0.00346691036109,-0.59145282591,-0.806284774737,1.0,0.0,0.0,0.0,1.0,0.0,0.0,0.0,1.0,-1.65778910741e-05,-0.000260011060163,-0.000955807743594,1.21846967915e-07,0.0,0.0,0.0,1.21846967915e-07,0.0,0.0,0.0,1.21846967915e-07,0.0869441181421,0.190124034882,9.78067493439,9e-08,0.0,0.0,0.0,9e-08,0.0,0.0,0.0,9e-08
1560476269786356439,11079,1560476269783846784,base_link,-0.00874324419776,-0.0034664159588,-0.591448716592,-0.806287788237,1.0,0.0,0.0,0.0,1.0,0.0,0.0,0.0,1.0,-0.0012805017177,0.000271724362392,-8.86018387973e-05,1.21846967915e-07,0.0,0.0,0.0,1.21846967915e-07,0.0,0.0,0.0,1.21846967915e-07,0.0344096124172,0.179370075464,9.81053638458,9e-08,0.0,0.0,0.0,9e-08,0.0,0.0,0.0,9e-08
1560476269806620536,11080,1560476269803846784,base_link,-0.00873635022457,-0.0034703583355,-0.591453331672,-0.806284521856,1.0,0.0,0.0,0.0,1.0,0.0,0.0,0.0,1.0,0.000855477410369,0.000587484391872,0.000835447164718,1.21846967915e-07,0.0,0.0,0.0,1.21846967915e-07,0.0,0.0,0.0,1.21846967915e-07,0.0440455749631,0.20173728466,9.82294178009,9e-08,0.0,0.0,0.0,9e-08,0.0,0.0,0.0,9e-08
1560476269825751307,11081,1560476269823846784,base_link,-0.00874396250518,-0.00347236343889,-0.591453500259,-0.806284353269,1.0,0.0,0.0,0.0,1.0,0.0,0.0,0.0,1.0,0.00063089421019,0.000382436235668,-0.000434033427155,1.21846967915e-07,0.0,0.0,0.0,1.21846967915e-07,0.0,0.0,0.0,1.21846967915e-07,0.0616981312633,0.191018640995,9.85325622559,9e-08,0.0,0.0,0.0,9e-08,0.0,0.0,0.0,9e-08
1560476269846137807,11082,1560476269843844992,base_link,-0.00873481614514,-0.00348424144154,-0.591453268452,-0.806284585076,1.0,0.0,0.0,0.0,1.0,0.0,0.0,0.0,1.0,0.000635605538264,0.00121906737331,-0.000323802203638,1.21846967915e-07,0.0,0.0,0.0,1.21846967915e-07,0.0,0.0,0.0,1.21846967915e-07,0.030682919547,0.13688775897,9.7945356369,9e-08,0.0,0.0,0.0,9e-08,0.0,0.0,0.0,9e-08
1560476269866629128,11083,1560476269863844992,base_link,-0.00875260260912,-0.00348024358247,-0.591453184158,-0.806284332195,1.0,0.0,0.0,0.0,1.0,0.0,0.0,0.0,1.0,0.00138863455504,-0.000684261787683,0.000625033397228,1.21846967915e-07,0.0,0.0,0.0,1.21846967915e-07,0.0,0.0,0.0,1.21846967915e-07,0.0525301396847,0.184796243906,9.84800624847,9e-08,0.0,0.0,0.0,9e-08,0.0,0.0,0.0,9e-08
1560476269887152053,11084,1560476269883844992,base_link,-0.00874714146415,-0.00348713376902,-0.591453953338,-0.806283815896,1.0,0.0,0.0,0.0,1.0,0.0,0.0,0.0,1.0,-0.00160600361414,0.00282234582119,-0.000523578957655,1.21846967915e-07,0.0,0.0,0.0,1.21846967915e-07,0.0,0.0,0.0,1.21846967915e-07,0.0391327999532,0.188910067081,9.80705928802,9e-08,0.0,0.0,0.0,9e-08,0.0,0.0,0.0,9e-08
1560476269906075359,11085,1560476269903844992,base_link,-0.00873349049505,-0.00348932738078,-0.591452014583,-0.806285333183,1.0,0.0,0.0,0.0,1.0,0.0,0.0,0.0,1.0,0.000621351820882,0.00132516026497,-0.00118763896171,1.21846967915e-07,0.0,0.0,0.0,1.21846967915e-07,0.0,0.0,0.0,1.21846967915e-07,0.0404718704522,0.159318044782,9.80309104919,9e-08,0.0,0.0,0.0,9e-08,0.0,0.0,0.0,9e-08
1560476269926475616,11086,1560476269923844992,base_link,-0.00873838957228,-0.00349077930678,-0.59145587102,-0.806282403977,1.0,0.0,0.0,0.0,1.0,0.0,0.0,0.0,1.0,-0.000210015103221,0.000698367366567,0.000746884034015,1.21846967915e-07,0.0,0.0,0.0,1.21846967915e-07,0.0,0.0,0.0,1.21846967915e-07,0.0745275020599,0.198607474566,9.84692573547,9e-08,0.0,0.0,0.0,9e-08,0.0,0.0,0.0,9e-08
1560476269946632345,11087,1560476269943842944,base_link,-0.00873716369168,-0.00348267492879,-0.591459885507,-0.806279653895,1.0,0.0,0.0,0.0,1.0,0.0,0.0,0.0,1.0,-0.000521710782778,0.000903711013962,0.000859054096509,1.21846967915e-07,0.0,0.0,0.0,1.21846967915e-07,0.0,0.0,0.0,1.21846967915e-07,0.0407132506371,0.15469583869,9.81809425354,9e-08,0.0,0.0,0.0,9e-08,0.0,0.0,0.0,9e-08
1560476269966910755,11088,1560476269963842944,base_link,-0.00872296761236,-0.00348175741166,-0.591464047508,-0.806276756299,1.0,0.0,0.0,0.0,1.0,0.0,0.0,0.0,1.0,0.0015049824724,-4.41956799477e-05,0.00147620239295,1.21846967915e-07,0.0,0.0,0.0,1.21846967915e-07,0.0,0.0,0.0,1.21846967915e-07,0.0632864832878,0.189331620932,9.82825279236,9e-08,0.0,0.0,0.0,9e-08,0.0,0.0,0.0,9e-08
1560476269986663266,11089,1560476269983842944,base_link,-0.00872713455273,-0.00348501885333,-0.591470485439,-0.806271835655,1.0,0.0,0.0,0.0,1.0,0.0,0.0,0.0,1.0,0.000973047805019,-0.000682451645844,0.00137667322997,1.21846967915e-07,0.0,0.0,0.0,1.21846967915e-07,0.0,0.0,0.0,1.21846967915e-07,0.0915235057473,0.200228989124,9.80945682526,9e-08,0.0,0.0,0.0,9e-08,0.0,0.0,0.0,9e-08
1560476270007425683,11090,1560476270003842944,base_link,-0.00872312434595,-0.00347994378008,-0.591471423207,-0.806271235062,1.0,0.0,0.0,0.0,1.0,0.0,0.0,0.0,1.0,-0.00106147211045,0.00197361339815,0.000325228611473,1.21846967915e-07,0.0,0.0,0.0,1.21846967915e-07,0.0,0.0,0.0,1.21846967915e-07,0.0592608265579,0.153363764286,9.85604572296,9e-08,0.0,0.0,0.0,9e-08,0.0,0.0,0.0,9e-08
1560476270025876259,11091,1560476270023842944,base_link,-0.00870784973536,-0.0034797346922,-0.591473372498,-0.80626996012,1.0,0.0,0.0,0.0,1.0,0.0,0.0,0.0,1.0,0.00150048034266,-0.000153957866132,0.000941638427321,1.21846967915e-07,0.0,0.0,0.0,1.21846967915e-07,0.0,0.0,0.0,1.21846967915e-07,0.0879691466689,0.133996650577,9.79392814636,9e-08,0.0,0.0,0.0,9e-08,0.0,0.0,0.0,9e-08
1560476270046474242,11092,1560476270043840896,base_link,-0.00872096596632,-0.00348056379974,-0.591478092945,-0.806266419785,1.0,0.0,0.0,0.0,1.0,0.0,0.0,0.0,1.0,0.000970038876403,-0.000258968037087,0.00116457906552,1.21846967915e-07,0.0,0.0,0.0,1.21846967915e-07,0.0,0.0,0.0,1.21846967915e-07,0.0683832317591,0.197093471885,9.85742473602,9e-08,0.0,0.0,0.0,9e-08,0.0,0.0,0.0,9e-08
1560476270066482849,11093,1560476270063840896,base_link,-0.00872392694707,-0.00348107334855,-0.591480094921,-0.806264923572,1.0,0.0,0.0,0.0,1.0,0.0,0.0,0.0,1.0,0.000519764260389,-0.000481687835418,-0.000746602541767,1.21846967915e-07,0.0,0.0,0.0,1.21846967915e-07,0.0,0.0,0.0,1.21846967915e-07,0.0696377009153,0.185789883137,9.77592277527,9e-08,0.0,0.0,0.0,9e-08,0.0,0.0,0.0,9e-08
1560476270086640205,11094,1560476270083840896,base_link,-0.00872354696689,-0.00347992550547,-0.591477840064,-0.806266588372,1.0,0.0,0.0,0.0,1.0,0.0,0.0,0.0,1.0,0.000745648052543,-5.50326076336e-05,-0.000110797293019,1.21846967915e-07,0.0,0.0,0.0,1.21846967915e-07,0.0,0.0,0.0,1.21846967915e-07,0.058030128479,0.169763699174,9.79639720917,9e-08,0.0,0.0,0.0,9e-08,0.0,0.0,0.0,9e-08
1560476270106029863,11095,1560476270103840896,base_link,-0.0087183085746,-0.00348095974962,-0.591484320142,-0.806261962755,1.0,0.0,0.0,0.0,1.0,0.0,0.0,0.0,1.0,-0.00115422718227,0.000805592571851,0.00150412227958,1.21846967915e-07,0.0,0.0,0.0,1.21846967915e-07,0.0,0.0,0.0,1.21846967915e-07,0.0771809220314,0.176430925727,9.8059797287,9e-08,0.0,0.0,0.0,9e-08,0.0,0.0,0.0,9e-08
1560476270126702157,11096,1560476270123838848,base_link,-0.00871002293223,-0.00348773600797,-0.591483150567,-0.806262879449,1.0,0.0,0.0,0.0,1.0,0.0,0.0,0.0,1.0,-0.000328567490214,0.00111252488568,-0.000428525061579,1.21846967915e-07,0.0,0.0,0.0,1.21846967915e-07,0.0,0.0,0.0,1.21846967915e-07,0.0854555815458,0.170362517238,9.81652832031,9e-08,0.0,0.0,0.0,9e-08,0.0,0.0,0.0,9e-08
1560476270146633793,11097,1560476270143838848,base_link,-0.00870114427054,-0.0034918981739,-0.591487143981,-0.806259981854,1.0,0.0,0.0,0.0,1.0,0.0,0.0,0.0,1.0,-0.000862154760398,0.000267700175755,-0.000303370325128,1.21846967915e-07,0.0,0.0,0.0,1.21846967915e-07,0.0,0.0,0.0,1.21846967915e-07,0.0735938176513,0.170230507851,9.78441429138,9e-08,0.0,0.0,0.0,9e-08,0.0,0.0,0.0,9e-08
1560476270166393462,11098,1560476270163838848,base_link,-0.00871546497941,-0.00348983692959,-0.591485795282,-0.806260740497,1.0,0.0,0.0,0.0,1.0,0.0,0.0,0.0,1.0,0.00244950782508,0.000480789662106,0.000393536232878,1.21846967915e-07,0.0,0.0,0.0,1.21846967915e-07,0.0,0.0,0.0,1.21846967915e-07,0.075272411108,0.202583611012,9.80513286591,9e-08,0.0,0.0,0.0,9e-08,0.0,0.0,0.0,9e-08
1560476270186147474,11099,1560476270183838848,base_link,-0.00870909520766,-0.00349928605546,-0.591491548327,-0.806256589032,1.0,0.0,0.0,0.0,1.0,0.0,0.0,0.0,1.0,-0.000532427744474,-5.11312391609e-05,0.000329571892507,1.21846967915e-07,0.0,0.0,0.0,1.21846967915e-07,0.0,0.0,0.0,1.21846967915e-07,0.0570471957326,0.154042094946,9.79537773132,9e-08,0.0,0.0,0.0,9e-08,0.0,0.0,0.0,9e-08
1560476270206765192,11100,1560476270203838848,base_link,-0.00871514048161,-0.00349642155149,-0.591494899001,-0.806254165588,1.0,0.0,0.0,0.0,1.0,0.0,0.0,0.0,1.0,0.000961123965681,-0.0016457522288,0.000527997675817,1.21846967915e-07,0.0,0.0,0.0,1.21846967915e-07,0.0,0.0,0.0,1.21846967915e-07,0.0685891732574,0.203087747097,9.80266094208,9e-08,0.0,0.0,0.0,9e-08,0.0,0.0,0.0,9e-08
1560476270223618531,11101,1560476270219838848,base_link,-0.00870804598162,-0.00350399020352,-0.591507932914,-0.806244587717,1.0,0.0,0.0,0.0,1.0,0.0,0.0,0.0,1.0,-0.00126269948669,0.000378109310986,0.00140121800359,1.21846967915e-07,0.0,0.0,0.0,1.21846967915e-07,0.0,0.0,0.0,1.21846967915e-07,0.0178451761603,0.18411719799,9.82187271118,9e-08,0.0,0.0,0.0,9e-08,0.0,0.0,0.0,9e-08
1560476270248842598,11102,1560476270244836288,base_link,-0.00870894341315,-0.00350598773365,-0.591510345821,-0.806242764866,1.0,0.0,0.0,0.0,1.0,0.0,0.0,0.0,1.0,0.000949269335251,-0.00112069572788,-0.000427751103416,1.21846967915e-07,0.0,0.0,0.0,1.21846967915e-07,0.0,0.0,0.0,1.21846967915e-07,0.0172424539924,0.161070406437,9.781914711,9e-08,0.0,0.0,0.0,9e-08,0.0,0.0,0.0,9e-08
1560476270265126106,11103,1560476270260836288,base_link,-0.00872250432629,-0.00350230367103,-0.591512442627,-0.806241089529,1.0,0.0,0.0,0.0,1.0,0.0,0.0,0.0,1.0,0.00021294518956,-0.00079677515896,0.000531408935785,1.21846967915e-07,0.0,0.0,0.0,1.21846967915e-07,0.0,0.0,0.0,1.21846967915e-07,0.0348273776472,0.178095161915,9.84499549866,9e-08,0.0,0.0,0.0,9e-08,0.0,0.0,0.0,9e-08
1560476270288477840,11104,1560476270284836288,base_link,-0.00872319629194,-0.00350882408484,-0.59152002906,-0.806235526145,1.0,0.0,0.0,0.0,1.0,0.0,0.0,0.0,1.0,-0.000846922746859,0.000904368236661,0.000647419539746,1.21846967915e-07,0.0,0.0,0.0,1.21846967915e-07,0.0,0.0,0.0,1.21846967915e-07,0.0362334623933,0.19416218996,9.73537731171,9e-08,0.0,0.0,0.0,9e-08,0.0,0.0,0.0,9e-08
1560476270303966714,11105,1560476270300836288,base_link,-0.00871520452506,-0.00350615138196,-0.591524096231,-0.806232554792,1.0,0.0,0.0,0.0,1.0,0.0,0.0,0.0,1.0,-0.000427616469096,0.000472865387565,0.000758420675993,1.21846967915e-07,0.0,0.0,0.0,1.21846967915e-07,0.0,0.0,0.0,1.21846967915e-07,0.0229902714491,0.187171161175,9.80325126648,9e-08,0.0,0.0,0.0,9e-08,0.0,0.0,0.0,9e-08
1560476270325256930,11106,1560476270320836288,base_link,-0.00871121275752,-0.00350443356861,-0.591528268769,-0.806229562366,1.0,0.0,0.0,0.0,1.0,0.0,0.0,0.0,1.0,9.32294933591e-05,-0.000166318146512,-0.000528592674527,1.21846967915e-07,0.0,0.0,0.0,1.21846967915e-07,0.0,0.0,0.0,1.21846967915e-07,0.0579935833812,0.194033503532,9.79143714905,9e-08,0.0,0.0,0.0,9e-08,0.0,0.0,0.0,9e-08
1560476270344337345,11107,1560476270340832704,base_link,-0.00870789451638,-0.00349299119315,-0.591526825239,-0.806230753014,1.0,0.0,0.0,0.0,1.0,0.0,0.0,0.0,1.0,-0.00107793766074,0.000367694359738,-0.000515600841027,1.21846967915e-07,0.0,0.0,0.0,1.21846967915e-07,0.0,0.0,0.0,1.21846967915e-07,0.0737579390407,0.192809343338,9.86491966248,9e-08,0.0,0.0,0.0,9e-08,0.0,0.0,0.0,9e-08
1560476270367396153,11108,1560476270360832704,base_link,-0.00870516583722,-0.00349376267804,-0.591526993826,-0.80623066872,1.0,0.0,0.0,0.0,1.0,0.0,0.0,0.0,1.0,0.000104049482616,-0.00037199788494,4.87896613777e-06,1.21846967915e-07,0.0,0.0,0.0,1.21846967915e-07,0.0,0.0,0.0,1.21846967915e-07,0.0375870019197,0.176690861583,9.7644701004,9e-08,0.0,0.0,0.0,9e-08,0.0,0.0,0.0,9e-08
1560476270385546631,11109,1560476270380832704,base_link,-0.00871300119977,-0.00349676300682,-0.591530618455,-0.806227887028,1.0,0.0,0.0,0.0,1.0,0.0,0.0,0.0,1.0,0.002749619307,-0.00133813195862,-0.00109043635894,1.21846967915e-07,0.0,0.0,0.0,1.21846967915e-07,0.0,0.0,0.0,1.21846967915e-07,0.0295222681016,0.184477940202,9.87853813171,9e-08,0.0,0.0,0.0,9e-08,0.0,0.0,0.0,9e-08
1560476270408112090,11110,1560476270400832704,base_link,-0.00871059125615,-0.00349376234877,-0.591539174266,-0.806221691442,1.0,0.0,0.0,0.0,1.0,0.0,0.0,0.0,1.0,-0.00168653693981,0.00303546944633,0.00150341924746,1.21846967915e-07,0.0,0.0,0.0,1.21846967915e-07,0.0,0.0,0.0,1.21846967915e-07,0.0573148839176,0.198049724102,9.7881860733,9e-08,0.0,0.0,0.0,9e-08,0.0,0.0,0.0,9e-08
1560476270423815514,11111,1560476270420832704,base_link,-0.00869443123246,-0.00349095233935,-0.59154098658,-0.806220553477,1.0,0.0,0.0,0.0,1.0,0.0,0.0,0.0,1.0,-0.000765447854064,-0.00176703638863,-0.00125273037702,1.21846967915e-07,0.0,0.0,0.0,1.21846967915e-07,0.0,0.0,0.0,1.21846967915e-07,0.0314774215221,0.171558350325,9.8152961731,9e-08,0.0,0.0,0.0,9e-08,0.0,0.0,0.0,9e-08
1560476270447676574,11112,1560476270444830656,base_link,-0.00870350959778,-0.00348182392465,-0.591548636233,-0.806214842579,1.0,0.0,0.0,0.0,1.0,0.0,0.0,0.0,1.0,0.000955300522037,0.00111132510938,9.21373721212e-05,1.21846967915e-07,0.0,0.0,0.0,1.21846967915e-07,0.0,0.0,0.0,1.21846967915e-07,0.0673761889338,0.142390042543,9.82494831085,9e-08,0.0,0.0,0.0,9e-08,0.0,0.0,0.0,9e-08
1560476270468084439,11113,1560476270464830656,base_link,-0.00870840159566,-0.00348129939395,-0.59155031157,-0.80621358871,1.0,0.0,0.0,0.0,1.0,0.0,0.0,0.0,1.0,0.00137468904722,-0.000381011748686,-0.000545447634067,1.21846967915e-07,0.0,0.0,0.0,1.21846967915e-07,0.0,0.0,0.0,1.21846967915e-07,0.0582958981395,0.215352922678,9.8263130188,9e-08,0.0,0.0,0.0,9e-08,0.0,0.0,0.0,9e-08
1560476270486485415,11114,1560476270480830656,base_link,-0.00871438332006,-0.00348118530112,-0.59155184993,-0.806212303231,1.0,0.0,0.0,0.0,1.0,0.0,0.0,0.0,1.0,0.000952459580731,0.000368170789443,-0.000114730559289,1.21846967915e-07,0.0,0.0,0.0,1.21846967915e-07,0.0,0.0,0.0,1.21846967915e-07,0.0531484596431,0.163865685463,9.79504299164,9e-08,0.0,0.0,0.0,9e-08,0.0,0.0,0.0,9e-08
1560476270504810325,11115,1560476270500830656,base_link,-0.0087230803881,-0.0034813100953,-0.591557592438,-0.80620807801,1.0,0.0,0.0,0.0,1.0,0.0,0.0,0.0,1.0,0.000985144986771,-0.0023831941653,0.00234267208725,1.21846967915e-07,0.0,0.0,0.0,1.21846967915e-07,0.0,0.0,0.0,1.21846967915e-07,0.0795825347304,0.218406558037,9.79623413086,9e-08,0.0,0.0,0.0,9e-08,0.0,0.0,0.0,9e-08
1560476270525450956,11116,1560476270520830656,base_link,-0.00872730116449,-0.00347566159442,-0.591561238141,-0.806205359538,1.0,0.0,0.0,0.0,1.0,0.0,0.0,0.0,1.0,-0.0020193697419,-0.000162622774951,0.000564451562241,1.21846967915e-07,0.0,0.0,0.0,1.21846967915e-07,0.0,0.0,0.0,1.21846967915e-07,0.0868414193392,0.193007364869,9.81978607178,9e-08,0.0,0.0,0.0,9e-08,0.0,0.0,0.0,9e-08
1560476270544388080,11117,1560476270540828608,base_link,-0.00870939566859,-0.00348729906369,-0.591568087004,-0.806200533724,1.0,0.0,0.0,0.0,1.0,0.0,0.0,0.0,1.0,-7.5092582847e-05,0.0024010501802,0.0026540919207,1.21846967915e-07,0.0,0.0,0.0,1.21846967915e-07,0.0,0.0,0.0,1.21846967915e-07,0.0540414527059,0.131331682205,9.75144481659,9e-08,0.0,0.0,0.0,9e-08,0.0,0.0,0.0,9e-08
1560476270568205159,11118,1560476270564828608,base_link,-0.0087294075191,-0.00348597275505,-0.591571100503,-0.80619811028,1.0,0.0,0.0,0.0,1.0,0.0,0.0,0.0,1.0,0.00224481755868,-0.000166820653249,0.00072588614421,1.21846967915e-07,0.0,0.0,0.0,1.21846967915e-07,0.0,0.0,0.0,1.21846967915e-07,0.110885165632,0.143661558628,9.84258365631,9e-08,0.0,0.0,0.0,9e-08,0.0,0.0,0.0,9e-08
1560476270584014112,11119,1560476270580828608,base_link,-0.00871662879219,-0.00349074621492,-0.591574777816,-0.806195528785,1.0,0.0,0.0,0.0,1.0,0.0,0.0,0.0,1.0,-0.00117753318045,0.00217412575148,-0.000202180322958,1.21846967915e-07,0.0,0.0,0.0,1.21846967915e-07,0.0,0.0,0.0,1.21846967915e-07,0.0697338879108,0.20712774992,9.78314399719,9e-08,0.0,0.0,0.0,9e-08,0.0,0.0,0.0,9e-08
1560476270609000405,11120,1560476270605828608,base_link,-0.00871092102231,-0.00349344311932,-0.591573913805,-0.806196139915,1.0,0.0,0.0,0.0,1.0,0.0,0.0,0.0,1.0,0.000525205978192,-0.00112719577737,3.91225330532e-06,1.21846967915e-07,0.0,0.0,0.0,1.21846967915e-07,0.0,0.0,0.0,1.21846967915e-07,0.0873024314642,0.13392239809,9.81939697266,9e-08,0.0,0.0,0.0,9e-08,0.0,0.0,0.0,9e-08
1560476270627026325,11121,1560476270621827072,base_link,-0.00870938101598,-0.00348913920168,-0.591580383347,-0.806191524835,1.0,0.0,0.0,0.0,1.0,0.0,0.0,0.0,1.0,-0.00168818456586,-0.000373147369828,0.00151750748046,1.21846967915e-07,0.0,0.0,0.0,1.21846967915e-07,0.0,0.0,0.0,1.21846967915e-07,0.0589577369392,0.197614997625,9.80146121979,9e-08,0.0,0.0,0.0,9e-08,0.0,0.0,0.0,9e-08
1560476270644714240,11122,1560476270641827072,base_link,-0.008699684442,-0.00349136261258,-0.591578844987,-0.80619272602,1.0,0.0,0.0,0.0,1.0,0.0,0.0,0.0,1.0,8.62087181304e-05,-6.60360674374e-05,-0.00116543867625,1.21846967915e-07,0.0,0.0,0.0,1.21846967915e-07,0.0,0.0,0.0,1.21846967915e-07,0.0884067714214,0.159643635154,9.79503536224,9e-08,0.0,0.0,0.0,9e-08,0.0,0.0,0.0,9e-08
1560476270665622193,11123,1560476270661827072,base_link,-0.00869194325131,-0.00348700634066,-0.591578602642,-0.806192968364,1.0,0.0,0.0,0.0,1.0,0.0,0.0,0.0,1.0,-0.000214634186705,-0.000479967449792,0.000649484223686,1.21846967915e-07,0.0,0.0,0.0,1.21846967915e-07,0.0,0.0,0.0,1.21846967915e-07,0.0521871000528,0.164563909173,9.856341362,9e-08,0.0,0.0,0.0,9e-08,0.0,0.0,0.0,9e-08
1560476270684518032,11124,1560476270681827072,base_link,-0.00870656046985,-0.00348613689727,-0.59158191117,-0.806190334186,1.0,0.0,0.0,0.0,1.0,0.0,0.0,0.0,1.0,-0.00064907129854,-0.00122725451365,-0.000399344833568,1.21846967915e-07,0.0,0.0,0.0,1.21846967915e-07,0.0,0.0,0.0,1.21846967915e-07,0.0531442426145,0.187406152487,9.78440856934,9e-08,0.0,0.0,0.0,9e-08,0.0,0.0,0.0,9e-08
1560476270705441220,11125,1560476270701827072,base_link,-0.00870118855766,-0.00348540146769,-0.591578139027,-0.806193179099,1.0,0.0,0.0,0.0,1.0,0.0,0.0,0.0,1.0,-0.00192894227803,0.00185060175136,-0.000831126701087,1.21846967915e-07,0.0,0.0,0.0,1.21846967915e-07,0.0,0.0,0.0,1.21846967915e-07,0.0566130653024,0.164403021336,9.80355072021,9e-08,0.0,0.0,0.0,9e-08,0.0,0.0,0.0,9e-08
1560476270726467311,11126,1560476270721825024,base_link,-0.0087000826968,-0.00348772168463,-0.591584534811,-0.806188553482,1.0,0.0,0.0,0.0,1.0,0.0,0.0,0.0,1.0,0.000440029631136,-0.000801204063464,0.000857209262904,1.21846967915e-07,0.0,0.0,0.0,1.21846967915e-07,0.0,0.0,0.0,1.21846967915e-07,0.0491628758609,0.148180812597,9.78509616852,9e-08,0.0,0.0,0.0,9e-08,0.0,0.0,0.0,9e-08
1560476270745195972,11127,1560476270741825024,base_link,-0.00871623070204,-0.00346970736425,-0.591587506164,-0.806186172185,1.0,0.0,0.0,0.0,1.0,0.0,0.0,0.0,1.0,-0.00010787890642,-0.000166709767655,0.000215277075768,1.21846967915e-07,0.0,0.0,0.0,1.21846967915e-07,0.0,0.0,0.0,1.21846967915e-07,0.0848152637482,0.182078957558,9.80745792389,9e-08,0.0,0.0,0.0,9e-08,0.0,0.0,0.0,9e-08
1560476270764719826,11128,1560476270761825024,base_link,-0.00870205668396,-0.00348409079949,-0.591595271721,-0.806180682558,1.0,0.0,0.0,0.0,1.0,0.0,0.0,0.0,1.0,-0.000648145040032,0.00175795005634,6.7493529059e-06,1.21846967915e-07,0.0,0.0,0.0,1.21846967915e-07,0.0,0.0,0.0,1.21846967915e-07,0.039071649313,0.191841632128,9.77740383148,9e-08,0.0,0.0,0.0,9e-08,0.0,0.0,0.0,9e-08
1560476270784737521,11129,1560476270781825024,base_link,-0.00871482470951,-0.0034818305101,-0.591596968132,-0.806179239029,1.0,0.0,0.0,0.0,1.0,0.0,0.0,0.0,1.0,0.00267586950213,-0.00186416134238,0.00146922294516,1.21846967915e-07,0.0,0.0,0.0,1.21846967915e-07,0.0,0.0,0.0,1.21846967915e-07,0.0456079207361,0.189897537231,9.87240695953,9e-08,0.0,0.0,0.0,9e-08,0.0,0.0,0.0,9e-08
1560476270809545221,11130,1560476270805825024,base_link,-0.00871530956291,-0.00348322514273,-0.5916080949,-0.80617106254,1.0,0.0,0.0,0.0,1.0,0.0,0.0,0.0,1.0,-0.00212391489185,0.000898009107914,0.000668993685395,1.21846967915e-07,0.0,0.0,0.0,1.21846967915e-07,0.0,0.0,0.0,1.21846967915e-07,0.0700407251716,0.221601739526,9.73439693451,9e-08,0.0,0.0,0.0,9e-08,0.0,0.0,0.0,9e-08
1560476270828536034,11131,1560476270825822976,base_link,-0.00870155981213,-0.00348788566221,-0.591606672443,-0.806172232115,1.0,0.0,0.0,0.0,1.0,0.0,0.0,0.0,1.0,-0.000856908969581,0.00153277581558,-9.55997384153e-05,1.21846967915e-07,0.0,0.0,0.0,1.21846967915e-07,0.0,0.0,0.0,1.21846967915e-07,0.0438504293561,0.135416150093,9.81109905243,9e-08,0.0,0.0,0.0,9e-08,0.0,0.0,0.0,9e-08
1560476270848508527,11132,1560476270845822976,base_link,-0.00870273893607,-0.00349291134463,-0.591613458086,-0.806167300934,1.0,0.0,0.0,0.0,1.0,0.0,0.0,0.0,1.0,0.000126588070998,-0.000582901120652,0.00203058961779,1.21846967915e-07,0.0,0.0,0.0,1.21846967915e-07,0.0,0.0,0.0,1.21846967915e-07,0.0515913330019,0.181432709098,9.82846355438,9e-08,0.0,0.0,0.0,9e-08,0.0,0.0,0.0,9e-08
1560476270864830695,11133,1560476270861822976,base_link,-0.00871696267426,-0.00349032803916,-0.591619316498,-0.806162875515,1.0,0.0,0.0,0.0,1.0,0.0,0.0,0.0,1.0,0.00148511794396,0.000256204453763,-0.000119959993754,1.21846967915e-07,0.0,0.0,0.0,1.21846967915e-07,0.0,0.0,0.0,1.21846967915e-07,0.0801664143801,0.208857178688,9.85381603241,9e-08,0.0,0.0,0.0,9e-08,0.0,0.0,0.0,9e-08
1560476270884381400,11134,1560476270881822976,base_link,-0.00870977367314,-0.00349116471995,-0.591618758052,-0.806163265373,1.0,0.0,0.0,0.0,1.0,0.0,0.0,0.0,1.0,-0.00116923858877,0.00132070132531,0.000765603675973,1.21846967915e-07,0.0,0.0,0.0,1.21846967915e-07,0.0,0.0,0.0,1.21846967915e-07,0.0390555113554,0.145364001393,9.80945491791,9e-08,0.0,0.0,0.0,9e-08,0.0,0.0,0.0,9e-08
1560476270905021705,11135,1560476270901822976,base_link,-0.00871301025476,-0.00349451094924,-0.59162588087,-0.806157997017,1.0,0.0,0.0,0.0,1.0,0.0,0.0,0.0,1.0,0.00309625966474,-0.0009102433105,0.000612499425188,1.21846967915e-07,0.0,0.0,0.0,1.21846967915e-07,0.0,0.0,0.0,1.21846967915e-07,0.0270298570395,0.182756632566,9.83992862701,9e-08,0.0,0.0,0.0,9e-08,0.0,0.0,0.0,9e-08
1560476270926549034,11136,1560476270921822976,base_link,-0.00871980594017,-0.00349419929305,-0.591621497597,-0.806161115884,1.0,0.0,0.0,0.0,1.0,0.0,0.0,0.0,1.0,-0.001401926158,0.00183929386549,-0.000732091022655,1.21846967915e-07,0.0,0.0,0.0,1.21846967915e-07,0.0,0.0,0.0,1.21846967915e-07,0.075672544539,0.218331202865,9.84198093414,9e-08,0.0,0.0,0.0,9e-08,0.0,0.0,0.0,9e-08
1560476270945589296,11137,1560476270941818624,base_link,-0.00870426379588,-0.003494925503,-0.59162142384,-0.806161442522,1.0,0.0,0.0,0.0,1.0,0.0,0.0,0.0,1.0,-0.000748057034798,-6.32716692053e-05,0.000123656063806,1.21846967915e-07,0.0,0.0,0.0,1.21846967915e-07,0.0,0.0,0.0,1.21846967915e-07,0.0570218153298,0.164544925094,9.83185577393,9e-08,0.0,0.0,0.0,9e-08,0.0,0.0,0.0,9e-08
1560476270965919866,11138,1560476270961818624,base_link,-0.00870827103921,-0.00348544312063,-0.591627672111,-0.806156795832,1.0,0.0,0.0,0.0,1.0,0.0,0.0,0.0,1.0,0.00139418477193,-5.96635509282e-05,0.000730375468265,1.21846967915e-07,0.0,0.0,0.0,1.21846967915e-07,0.0,0.0,0.0,1.21846967915e-07,0.0635858029127,0.170289069414,9.81904697418,9e-08,0.0,0.0,0.0,9e-08,0.0,0.0,0.0,9e-08
1560476270985844760,11139,1560476270981818624,base_link,-0.00871370139722,-0.00348253498809,-0.591632245044,-0.80615340301,1.0,0.0,0.0,0.0,1.0,0.0,0.0,0.0,1.0,0.000115073111374,5.58762694709e-05,0.00115687120706,1.21846967915e-07,0.0,0.0,0.0,1.21846967915e-07,0.0,0.0,0.0,1.21846967915e-07,0.0903004258871,0.228412479162,9.80794239044,9e-08,0.0,0.0,0.0,9e-08,0.0,0.0,0.0,9e-08
1560476271006737894,11140,1560476271001818624,base_link,-0.00870609158616,-0.00348665319617,-0.59163376233,-0.806152307192,1.0,0.0,0.0,0.0,1.0,0.0,0.0,0.0,1.0,-0.000100737583125,0.000790183898062,0.000754451844841,1.21846967915e-07,0.0,0.0,0.0,1.21846967915e-07,0.0,0.0,0.0,1.21846967915e-07,0.0479237176478,0.161608636379,9.791223526,9e-08,0.0,0.0,0.0,9e-08,0.0,0.0,0.0,9e-08
1560476271028626576,11141,1560476271025816576,base_link,-0.00870446613368,-0.00347962142255,-0.591646511752,-0.806143098106,1.0,0.0,0.0,0.0,1.0,0.0,0.0,0.0,1.0,0.000326895940816,-0.0015574998688,0.000967373780441,1.21846967915e-07,0.0,0.0,0.0,1.21846967915e-07,0.0,0.0,0.0,1.21846967915e-07,0.0706306174397,0.172248274088,9.77035999298,9e-08,0.0,0.0,0.0,9e-08,0.0,0.0,0.0,9e-08
1560476271045608161,11142,1560476271041816576,base_link,-0.00870479622911,-0.00347265319847,-0.591648513727,-0.806141517599,1.0,0.0,0.0,0.0,1.0,0.0,0.0,0.0,1.0,-0.000313493161229,0.00132022274192,0.000862141139805,1.21846967915e-07,0.0,0.0,0.0,1.21846967915e-07,0.0,0.0,0.0,1.21846967915e-07,0.0891496092081,0.17116111517,9.81394672394,9e-08,0.0,0.0,0.0,9e-08,0.0,0.0,0.0,9e-08
1560476271068438311,11143,1560476271065816576,base_link,-0.00870286554125,-0.00347748148217,-0.59165686934,-0.80613552221,1.0,0.0,0.0,0.0,1.0,0.0,0.0,0.0,1.0,-0.00040987416287,-0.00133640295826,0.0012932860991,1.21846967915e-07,0.0,0.0,0.0,1.21846967915e-07,0.0,0.0,0.0,1.21846967915e-07,0.0747939348221,0.14315161109,9.78383636475,9e-08,0.0,0.0,0.0,9e-08,0.0,0.0,0.0,9e-08
1560476271084347240,11144,1560476271081816576,base_link,-0.00870515497123,-0.00347112224713,-0.591661905888,-0.806131750067,1.0,0.0,0.0,0.0,1.0,0.0,0.0,0.0,1.0,-0.000222379196202,-0.000915688287932,-0.000192445440916,1.21846967915e-07,0.0,0.0,0.0,1.21846967915e-07,0.0,0.0,0.0,1.21846967915e-07,0.0631595775485,0.179461941123,9.86489391327,9e-08,0.0,0.0,0.0,9e-08,0.0,0.0,0.0,9e-08
1560476271105606339,11145,1560476271102816576,base_link,-0.00869942563401,-0.00346440245897,-0.591664866705,-0.806129632188,1.0,0.0,0.0,0.0,1.0,0.0,0.0,0.0,1.0,-0.0022588444408,0.0017204626929,-0.00145064829849,1.21846967915e-07,0.0,0.0,0.0,1.21846967915e-07,0.0,0.0,0.0,1.21846967915e-07,0.0623094514012,0.178714513779,9.78242111206,9e-08,0.0,0.0,0.0,9e-08,0.0,0.0,0.0,9e-08
1560476271125705681,11146,1560476271122816576,base_link,-0.00868198210708,-0.00346434055578,-0.591664729727,-0.806129937752,1.0,0.0,0.0,0.0,1.0,0.0,0.0,0.0,1.0,-0.00169777742121,-0.000170621380676,0.000670275010634,1.21846967915e-07,0.0,0.0,0.0,1.21846967915e-07,0.0,0.0,0.0,1.21846967915e-07,0.0474577397108,0.168216019869,9.79052257538,9e-08,0.0,0.0,0.0,9e-08,0.0,0.0,0.0,9e-08
1560476271145712659,11147,1560476271142814784,base_link,-0.00869135615888,-0.00346131487304,-0.591669123536,-0.806126724055,1.0,0.0,0.0,0.0,1.0,0.0,0.0,0.0,1.0,-0.000219185370952,-0.00113311689347,-0.000191664992599,1.21846967915e-07,0.0,0.0,0.0,1.21846967915e-07,0.0,0.0,0.0,1.21846967915e-07,0.0672661885619,0.179163902998,9.79916667938,9e-08,0.0,0.0,0.0,9e-08,0.0,0.0,0.0,9e-08
1560476271165476135,11148,1560476271162814784,base_link,-0.00869265810138,-0.00345618415278,-0.59166766947,-0.806127756653,1.0,0.0,0.0,0.0,1.0,0.0,0.0,0.0,1.0,-0.00042647816008,-0.00038568925811,0.000124441634398,1.21846967915e-07,0.0,0.0,0.0,1.21846967915e-07,0.0,0.0,0.0,1.21846967915e-07,0.0512440465391,0.195286899805,9.78744697571,9e-08,0.0,0.0,0.0,9e-08,0.0,0.0,0.0,9e-08
1560476271186227608,11149,1560476271182814784,base_link,-0.00868999692302,-0.00345730828825,-0.591670672433,-0.806125512333,1.0,0.0,0.0,0.0,1.0,0.0,0.0,0.0,1.0,0.000208206416573,0.000254699960351,3.80369601771e-06,1.21846967915e-07,0.0,0.0,0.0,1.21846967915e-07,0.0,0.0,0.0,1.21846967915e-07,0.0653864890337,0.167870104313,9.81134223938,9e-08,0.0,0.0,0.0,9e-08,0.0,0.0,0.0,9e-08
1560476271204920550,11150,1560476271202814784,base_link,-0.00869342547036,-0.00346212866942,-0.59167625689,-0.806121445163,1.0,0.0,0.0,0.0,1.0,0.0,0.0,0.0,1.0,-0.000113581729238,-0.000704899372067,-0.000200498383492,1.21846967915e-07,0.0,0.0,0.0,1.21846967915e-07,0.0,0.0,0.0,1.21846967915e-07,0.0462633445859,0.220888957381,9.77769947052,9e-08,0.0,0.0,0.0,9e-08,0.0,0.0,0.0,9e-08
1560476271226025684,11151,1560476271222814784,base_link,-0.00868666287681,-0.0034644750635,-0.591674634237,-0.806122646348,1.0,0.0,0.0,0.0,1.0,0.0,0.0,0.0,1.0,-0.00257628294639,0.001628709957,-0.00134937628172,1.21846967915e-07,0.0,0.0,0.0,1.21846967915e-07,0.0,0.0,0.0,1.21846967915e-07,0.0306188687682,0.168961346149,9.84640312195,9e-08,0.0,0.0,0.0,9e-08,0.0,0.0,0.0,9e-08
1560476271245393233,11152,1560476271242812480,base_link,-0.00868298852773,-0.00346852610004,-0.591679070193,-0.806119474797,1.0,0.0,0.0,0.0,1.0,0.0,0.0,0.0,1.0,0.000207954581128,0.000358076416887,3.13384225592e-06,1.21846967915e-07,0.0,0.0,0.0,1.21846967915e-07,0.0,0.0,0.0,1.21846967915e-07,0.0210970789194,0.16214735806,9.81258583069,9e-08,0.0,0.0,0.0,9e-08,0.0,0.0,0.0,9e-08
1560476271266520794,11153,1560476271262812480,base_link,-0.00869401602015,-0.00346587661085,-0.591684001374,-0.806115639434,1.0,0.0,0.0,0.0,1.0,0.0,0.0,0.0,1.0,0.000957907934207,-0.00038635317469,0.00031607481651,1.21846967915e-07,0.0,0.0,0.0,1.21846967915e-07,0.0,0.0,0.0,1.21846967915e-07,0.0282368883491,0.174448251724,9.81521320343,9e-08,0.0,0.0,0.0,9e-08,0.0,0.0,0.0,9e-08
1560476271285268164,11154,1560476271282812480,base_link,-0.00869258220412,-0.00346437990382,-0.591686730382,-0.806113669069,1.0,0.0,0.0,0.0,1.0,0.0,0.0,0.0,1.0,-0.000842313515022,0.000361107551726,0.000975457136519,1.21846967915e-07,0.0,0.0,0.0,1.21846967915e-07,0.0,0.0,0.0,1.21846967915e-07,0.0360539257526,0.196704655886,9.79498291016,9e-08,0.0,0.0,0.0,9e-08,0.0,0.0,0.0,9e-08
1560476271305540059,11155,1560476271302812480,base_link,-0.00869335978055,-0.00346666060808,-0.591685950666,-0.806114280198,1.0,0.0,0.0,0.0,1.0,0.0,0.0,0.0,1.0,0.00114478776231,-0.000291730102617,-0.00149598997086,1.21846967915e-07,0.0,0.0,0.0,1.21846967915e-07,0.0,0.0,0.0,1.21846967915e-07,0.0378058813512,0.166396379471,9.82046890259,9e-08,0.0,0.0,0.0,9e-08,0.0,0.0,0.0,9e-08
1560476271325086590,11156,1560476271322812480,base_link,-0.00869519185137,-0.00347227272438,-0.591688226595,-0.806112510031,1.0,0.0,0.0,0.0,1.0,0.0,0.0,0.0,1.0,-0.00117955286987,0.00216419203207,-0.000306789152091,1.21846967915e-07,0.0,0.0,0.0,1.21846967915e-07,0.0,0.0,0.0,1.21846967915e-07,0.0570094808936,0.19118386507,9.82973861694,9e-08,0.0,0.0,0.0,9e-08,0.0,0.0,0.0,9e-08
1560476271345540440,11157,1560476271342810432,base_link,-0.00868489353235,-0.00347061055804,-0.591687647076,-0.80611308955,1.0,0.0,0.0,0.0,1.0,0.0,0.0,0.0,1.0,-0.000536154257134,3.7485617213e-05,1.5173049178e-05,1.21846967915e-07,0.0,0.0,0.0,1.21846967915e-07,0.0,0.0,0.0,1.21846967915e-07,0.0181102640927,0.174736857414,9.77032852173,9e-08,0.0,0.0,0.0,9e-08,0.0,0.0,0.0,9e-08
1560476271366136418,11158,1560476271362810432,base_link,-0.00869084134171,-0.00347339504886,-0.5916993639,-0.806104491593,1.0,0.0,0.0,0.0,1.0,0.0,0.0,0.0,1.0,0.000331566436216,0.0011009281734,0.000956011761446,1.21846967915e-07,0.0,0.0,0.0,1.21846967915e-07,0.0,0.0,0.0,1.21846967915e-07,0.0497794523835,0.200426191092,9.77631950378,9e-08,0.0,0.0,0.0,9e-08,0.0,0.0,0.0,9e-08
1560476271386364194,11159,1560476271382810432,base_link,-0.00869363702779,-0.00346627009119,-0.591703652342,-0.806101214675,1.0,0.0,0.0,0.0,1.0,0.0,0.0,0.0,1.0,-0.000207874341868,0.00132032623515,0.000532268371899,1.21846967915e-07,0.0,0.0,0.0,1.21846967915e-07,0.0,0.0,0.0,1.21846967915e-07,0.0570902042091,0.172040000558,9.80044841766,9e-08,0.0,0.0,0.0,9e-08,0.0,0.0,0.0,9e-08
1560476271405027208,11160,1560476271402810432,base_link,-0.00869466764994,-0.00346100634494,-0.591698615794,-0.806104986818,1.0,0.0,0.0,0.0,1.0,0.0,0.0,0.0,1.0,-0.000652365852147,-6.79088989273e-05,-0.000199031754164,1.21846967915e-07,0.0,0.0,0.0,1.21846967915e-07,0.0,0.0,0.0,1.21846967915e-07,0.0664328411222,0.193606048822,9.82811355591,9e-08,0.0,0.0,0.0,9e-08,0.0,0.0,0.0,9e-08
1560476271423408563,11161,1560476271418810432,base_link,-0.00869679392552,-0.00345832820906,-0.591698426133,-0.806105092185,1.0,0.0,0.0,0.0,1.0,0.0,0.0,0.0,1.0,0.000337074656272,-0.000706728897057,0.00064807292074,1.21846967915e-07,0.0,0.0,0.0,1.21846967915e-07,0.0,0.0,0.0,1.21846967915e-07,0.0264034494758,0.197591125965,9.79758358002,9e-08,0.0,0.0,0.0,9e-08,0.0,0.0,0.0,9e-08
1560476271445220764,11162,1560476271442808640,base_link,-0.0087073750894,-0.00346381553117,-0.591694390572,-0.806107863341,1.0,0.0,0.0,0.0,1.0,0.0,0.0,0.0,1.0,0.000420072989073,0.00152534979861,-0.000110798981041,1.21846967915e-07,0.0,0.0,0.0,1.21846967915e-07,0.0,0.0,0.0,1.21846967915e-07,0.0657840445638,0.175579279661,9.84240341187,9e-08,0.0,0.0,0.0,9e-08,0.0,0.0,0.0,9e-08
1560476271465015908,11163,1560476271458808640,base_link,-0.00870471572204,-0.00345744625333,-0.591687510099,-0.806112973646,1.0,0.0,0.0,0.0,1.0,0.0,0.0,0.0,1.0,-0.000322279141983,-0.000284543144517,-0.000197954650503,1.21846967915e-07,0.0,0.0,0.0,1.21846967915e-07,0.0,0.0,0.0,1.21846967915e-07,0.0519113875926,0.142517387867,9.80059242249,9e-08,0.0,0.0,0.0,9e-08,0.0,0.0,0.0,9e-08
1560476271485329209,11164,1560476271482808640,base_link,-0.0087108066002,-0.00345852429069,-0.591689701735,-0.806111372066,1.0,0.0,0.0,0.0,1.0,0.0,0.0,0.0,1.0,-0.000317740661558,0.000570530537516,0.000337378238328,1.21846967915e-07,0.0,0.0,0.0,1.21846967915e-07,0.0,0.0,0.0,1.21846967915e-07,0.0681112185121,0.199018418789,9.83115196228,9e-08,0.0,0.0,0.0,9e-08,0.0,0.0,0.0,9e-08
1560476271505622674,11165,1560476271502808640,base_link,-0.00870321358202,-0.00345372876958,-0.591690597356,-0.80611081362,1.0,0.0,0.0,0.0,1.0,0.0,0.0,0.0,1.0,-0.000853089266457,0.000568041403312,1.76423345692e-05,1.21846967915e-07,0.0,0.0,0.0,1.21846967915e-07,0.0,0.0,0.0,1.21846967915e-07,0.0754609405994,0.160675212741,9.78475666046,9e-08,0.0,0.0,0.0,9e-08,0.0,0.0,0.0,9e-08
1560476271525137777,11166,1560476271522808640,base_link,-0.00870476379579,-0.00345724276308,-0.591691166338,-0.806110328931,1.0,0.0,0.0,0.0,1.0,0.0,0.0,0.0,1.0,0.00041526381392,0.000777923967689,-0.000531706667971,1.21846967915e-07,0.0,0.0,0.0,1.21846967915e-07,0.0,0.0,0.0,1.21846967915e-07,0.0944303497672,0.154981583357,9.81092834473,9e-08,0.0,0.0,0.0,9e-08,0.0,0.0,0.0,9e-08
1560476271545246004,11167,1560476271542806848,base_link,-0.00870573910021,-0.00345323156848,-0.591689164363,-0.806111825144,1.0,0.0,0.0,0.0,1.0,0.0,0.0,0.0,1.0,-0.000858137849718,-0.000292341690511,-0.000194164051209,1.21846967915e-07,0.0,0.0,0.0,1.21846967915e-07,0.0,0.0,0.0,1.21846967915e-07,0.0834964960814,0.188481032848,9.74277305603,9e-08,0.0,0.0,0.0,9e-08,0.0,0.0,0.0,9e-08
1560476271565707216,11168,1560476271562806848,base_link,-0.00871174436758,-0.0034621436513,-0.59168773137,-0.806112836669,1.0,0.0,0.0,0.0,1.0,0.0,0.0,0.0,1.0,0.00138306012377,0.000475831417134,0.000733670080081,1.21846967915e-07,0.0,0.0,0.0,1.21846967915e-07,0.0,0.0,0.0,1.21846967915e-07,0.0610513538122,0.142559945583,9.80967140198,9e-08,0.0,0.0,0.0,9e-08,0.0,0.0,0.0,9e-08
1560476271585850615,11169,1560476271583806848,base_link,-0.00872460409546,-0.00345628820281,-0.591696002689,-0.806106588398,1.0,0.0,0.0,0.0,1.0,0.0,0.0,0.0,1.0,0.00148981797975,-0.0008139446727,9.68138920143e-05,1.21846967915e-07,0.0,0.0,0.0,1.21846967915e-07,0.0,0.0,0.0,1.21846967915e-07,0.0623146668077,0.160683602095,9.79464149475,9e-08,0.0,0.0,0.0,9e-08,0.0,0.0,0.0,9e-08
1560476271605609365,11170,1560476271599806848,base_link,-0.00872831729867,-0.00345713344469,-0.59169471721,-0.806107536703,1.0,0.0,0.0,0.0,1.0,0.0,0.0,0.0,1.0,0.000642452330794,0.000149269821122,0.000327811343595,1.21846967915e-07,0.0,0.0,0.0,1.21846967915e-07,0.0,0.0,0.0,1.21846967915e-07,0.0621747896075,0.172216176987,9.84053516388,9e-08,0.0,0.0,0.0,9e-08,0.0,0.0,0.0,9e-08
1560476271623620712,11171,1560476271619806848,base_link,-0.00871413817687,-0.00346079956196,-0.591694506476,-0.80610783173,1.0,0.0,0.0,0.0,1.0,0.0,0.0,0.0,1.0,-0.000742827367503,0.00131806218997,0.000225093157496,1.21846967915e-07,0.0,0.0,0.0,1.21846967915e-07,0.0,0.0,0.0,1.21846967915e-07,0.0323096066713,0.17400868237,9.79560947418,9e-08,0.0,0.0,0.0,9e-08,0.0,0.0,0.0,9e-08
1560476271645258695,11172,1560476271639804032,base_link,-0.00871599708338,-0.00345888928898,-0.591694285205,-0.806107968708,1.0,0.0,0.0,0.0,1.0,0.0,0.0,0.0,1.0,0.000848701165523,3.40202823281e-05,0.00010441878112,1.21846967915e-07,0.0,0.0,0.0,1.21846967915e-07,0.0,0.0,0.0,1.21846967915e-07,0.0420979335904,0.186884135008,9.81093978882,9e-08,0.0,0.0,0.0,9e-08,0.0,0.0,0.0,9e-08
1560476271664373585,11173,1560476271659804032,base_link,-0.00872072230486,-0.00345016011689,-0.591693589782,-0.806108495543,1.0,0.0,0.0,0.0,1.0,0.0,0.0,0.0,1.0,-0.00151640817057,-0.000932515074965,-0.00166869559325,1.21846967915e-07,0.0,0.0,0.0,1.21846967915e-07,0.0,0.0,0.0,1.21846967915e-07,0.0530672818422,0.214014708996,9.81530380249,9e-08,0.0,0.0,0.0,9e-08,0.0,0.0,0.0,9e-08
1560476271685496689,11174,1560476271679804032,base_link,-0.00871737508776,-0.00344921230671,-0.591692799528,-0.806109117209,1.0,0.0,0.0,0.0,1.0,0.0,0.0,0.0,1.0,0.000414577429183,-0.000288557086606,-0.00052670709556,1.21846967915e-07,0.0,0.0,0.0,1.21846967915e-07,0.0,0.0,0.0,1.21846967915e-07,0.0302871484309,0.183917075396,9.786028862,9e-08,0.0,0.0,0.0,9e-08,0.0,0.0,0.0,9e-08
1560476271705546286,11175,1560476271699804032,base_link,-0.00872895114776,-0.00345450025447,-0.591689764955,-0.806111224552,1.0,0.0,0.0,0.0,1.0,0.0,0.0,0.0,1.0,0.0006434393581,0.00163209985476,0.000631463946775,1.21846967915e-07,0.0,0.0,0.0,1.21846967915e-07,0.0,0.0,0.0,1.21846967915e-07,0.0350389108062,0.15270601213,9.82053279877,9e-08,0.0,0.0,0.0,9e-08,0.0,0.0,0.0,9e-08
1560476271727841136,11176,1560476271723800704,base_link,-0.00872131878154,-0.00345487282603,-0.591691798541,-0.806109781022,1.0,0.0,0.0,0.0,1.0,0.0,0.0,0.0,1.0,-0.00130359490868,-0.00125057133846,-0.00156634068117,1.21846967915e-07,0.0,0.0,0.0,1.21846967915e-07,0.0,0.0,0.0,1.21846967915e-07,0.0296114087105,0.215074792504,9.80376529694,9e-08,0.0,0.0,0.0,9e-08,0.0,0.0,0.0,9e-08
1560476271744334017,11177,1560476271739800704,base_link,-0.00872391278836,-0.00344398379259,-0.591689912469,-0.806111161331,1.0,0.0,0.0,0.0,1.0,0.0,0.0,0.0,1.0,-0.00022515229648,-0.00156696280465,-0.000618373742327,1.21846967915e-07,0.0,0.0,0.0,1.21846967915e-07,0.0,0.0,0.0,1.21846967915e-07,0.0538667067885,0.188638731837,9.87446117401,9e-08,0.0,0.0,0.0,9e-08,0.0,0.0,0.0,9e-08
1560476271767109151,11178,1560476271763800704,base_link,-0.0087407812413,-0.00343781537082,-0.591703020139,-0.806101341116,1.0,0.0,0.0,0.0,1.0,0.0,0.0,0.0,1.0,0.0010820934549,-0.00102269439958,0.001702831476,1.21846967915e-07,0.0,0.0,0.0,1.21846967915e-07,0.0,0.0,0.0,1.21846967915e-07,0.0892547369003,0.205210447311,9.80291557312,9e-08,0.0,0.0,0.0,9e-08,0.0,0.0,0.0,9e-08
1560476271786799038,11179,1560476271783800704,base_link,-0.00874883935653,-0.00344587447387,-0.591705190702,-0.806099592022,1.0,0.0,0.0,0.0,1.0,0.0,0.0,0.0,1.0,0.000311193463858,-0.000286405207589,-0.000313421303872,1.21846967915e-07,0.0,0.0,0.0,1.21846967915e-07,0.0,0.0,0.0,1.21846967915e-07,0.0310889333487,0.179662019014,9.83116436005,9e-08,0.0,0.0,0.0,9e-08,0.0,0.0,0.0,9e-08
1560476271805473530,11180,1560476271799800704,base_link,-0.00875181087399,-0.0034467422709,-0.591705886125,-0.806099065186,1.0,0.0,0.0,0.0,1.0,0.0,0.0,0.0,1.0,0.000853618141264,0.000888007460162,0.000524231523741,1.21846967915e-07,0.0,0.0,0.0,1.21846967915e-07,0.0,0.0,0.0,1.21846967915e-07,0.0306462924927,0.1931168437,9.76319217682,9e-08,0.0,0.0,0.0,9e-08,0.0,0.0,0.0,9e-08
1560476271824448090,11181,1560476271819800704,base_link,-0.00874877053863,-0.00344780038728,-0.591699406047,-0.80610385939,1.0,0.0,0.0,0.0,1.0,0.0,0.0,0.0,1.0,-0.00023258406145,0.000452026375569,-0.00105563958641,1.21846967915e-07,0.0,0.0,0.0,1.21846967915e-07,0.0,0.0,0.0,1.21846967915e-07,0.0583302229643,0.211815461516,9.7976436615,9e-08,0.0,0.0,0.0,9e-08,0.0,0.0,0.0,9e-08
1560476271847793500,11182,1560476271843798656,base_link,-0.0087373419926,-0.00344897671241,-0.591699690538,-0.806103743486,1.0,0.0,0.0,0.0,1.0,0.0,0.0,0.0,1.0,-0.000508928264026,0.00174570002127,0.00192154734395,1.21846967915e-07,0.0,0.0,0.0,1.21846967915e-07,0.0,0.0,0.0,1.21846967915e-07,0.0673843324184,0.220598354936,9.83988571167,9e-08,0.0,0.0,0.0,9e-08,0.0,0.0,0.0,9e-08
1560476271864492928,11183,1560476271859798656,base_link,-0.00874308960443,-0.00344713031825,-0.591700817966,-0.806102953233,1.0,0.0,0.0,0.0,1.0,0.0,0.0,0.0,1.0,0.00139181269333,-7.12997862138e-05,0.00105412118137,1.21846967915e-07,0.0,0.0,0.0,1.21846967915e-07,0.0,0.0,0.0,1.21846967915e-07,0.0358277000487,0.184997290373,9.76813983917,9e-08,0.0,0.0,0.0,9e-08,0.0,0.0,0.0,9e-08
1560476271885941931,11184,1560476271879798656,base_link,-0.00874836635694,-0.00344619469114,-0.591707519315,-0.806098022051,1.0,0.0,0.0,0.0,1.0,0.0,0.0,0.0,1.0,-0.000203735704417,3.71530768462e-05,0.00107490282971,1.21846967915e-07,0.0,0.0,0.0,1.21846967915e-07,0.0,0.0,0.0,1.21846967915e-07,0.0810478776693,0.179213434458,9.83428001404,9e-08,0.0,0.0,0.0,9e-08,0.0,0.0,0.0,9e-08
1560476271904532875,11185,1560476271899798656,base_link,-0.00874093468217,-0.00345391085714,-0.591712640157,-0.806094165615,1.0,0.0,0.0,0.0,1.0,0.0,0.0,0.0,1.0,-0.000211772945477,0.00152481335681,0.000429286737926,1.21846967915e-07,0.0,0.0,0.0,1.21846967915e-07,0.0,0.0,0.0,1.21846967915e-07,0.0782192498446,0.167104452848,9.79376888275,9e-08,0.0,0.0,0.0,9e-08,0.0,0.0,0.0,9e-08
1560476271928844025,11186,1560476271923794560,base_link,-0.00874487656496,-0.00344731635707,-0.591719847268,-0.806088981552,1.0,0.0,0.0,0.0,1.0,0.0,0.0,0.0,1.0,0.000116013543447,0.000570579315536,0.000963416299783,1.21846967915e-07,0.0,0.0,0.0,1.21846967915e-07,0.0,0.0,0.0,1.21846967915e-07,0.0506004206836,0.182707935572,9.86052417755,9e-08,0.0,0.0,0.0,9e-08,0.0,0.0,0.0,9e-08
1560476271944393448,11187,1560476271939794560,base_link,-0.00874274106975,-0.00345018942212,-0.591719762975,-0.806088981552,1.0,0.0,0.0,0.0,1.0,0.0,0.0,0.0,1.0,0.000317803293001,0.00227180030197,-0.000213016581256,1.21846967915e-07,0.0,0.0,0.0,1.21846967915e-07,0.0,0.0,0.0,1.21846967915e-07,0.0797289758921,0.184768632054,9.80063724518,9e-08,0.0,0.0,0.0,9e-08,0.0,0.0,0.0,9e-08
1560476271968546408,11188,1560476271965794560,base_link,-0.00874626658778,-0.00344298922575,-0.591719309896,-0.806089266044,1.0,0.0,0.0,0.0,1.0,0.0,0.0,0.0,1.0,0.000635604839772,-0.00124479772057,0.000112477398943,1.21846967915e-07,0.0,0.0,0.0,1.21846967915e-07,0.0,0.0,0.0,1.21846967915e-07,0.046748187393,0.18865942955,9.8278799057,9e-08,0.0,0.0,0.0,9e-08,0.0,0.0,0.0,9e-08
1560476271984509601,11189,1560476271981794560,base_link,-0.00874670468451,-0.0034301178087,-0.591721259188,-0.806087991102,1.0,0.0,0.0,0.0,1.0,0.0,0.0,0.0,1.0,-0.000205568649108,3.82345169783e-05,0.000758899259381,1.21846967915e-07,0.0,0.0,0.0,1.21846967915e-07,0.0,0.0,0.0,1.21846967915e-07,0.0788450613618,0.181486338377,9.80929660797,9e-08,0.0,0.0,0.0,9e-08,0.0,0.0,0.0,9e-08
1560476272008537311,11190,1560476272005794560,base_link,-0.00874149839627,-0.00343007813139,-0.591729994122,-0.806081532097,1.0,0.0,0.0,0.0,1.0,0.0,0.0,0.0,1.0,-0.00224437890574,0.00151494471356,-0.000711343018338,1.21846967915e-07,0.0,0.0,0.0,1.21846967915e-07,0.0,0.0,0.0,1.21846967915e-07,0.0683157145977,0.181055486202,9.82772636414,9e-08,0.0,0.0,0.0,9e-08,0.0,0.0,0.0,9e-08
1560476272026900089,11191,1560476272021792768,base_link,-0.00873399543405,-0.00343422778497,-0.591730721155,-0.806081142239,1.0,0.0,0.0,0.0,1.0,0.0,0.0,0.0,1.0,2.48593278229e-06,-0.000177600304596,0.000760449969675,1.21846967915e-07,0.0,0.0,0.0,1.21846967915e-07,0.0,0.0,0.0,1.21846967915e-07,0.0866837128997,0.178070932627,9.79166030884,9e-08,0.0,0.0,0.0,9e-08,0.0,0.0,0.0,9e-08
1560476272044750640,11192,1560476272041792768,base_link,-0.00874035565691,-0.00342607763814,-0.591732670447,-0.806079530122,1.0,0.0,0.0,0.0,1.0,0.0,0.0,0.0,1.0,-0.000117671355838,-0.00018479191931,-0.000520542846061,1.21846967915e-07,0.0,0.0,0.0,1.21846967915e-07,0.0,0.0,0.0,1.21846967915e-07,0.0631017014384,0.16856855154,9.803565979,9e-08,0.0,0.0,0.0,9e-08,0.0,0.0,0.0,9e-08
1560476272065029551,11193,1560476272061792768,base_link,-0.0087409485116,-0.00343021445011,-0.591737643775,-0.806075989786,1.0,0.0,0.0,0.0,1.0,0.0,0.0,0.0,1.0,0.000540134846233,-0.000181497191079,0.000651343318168,1.21846967915e-07,0.0,0.0,0.0,1.21846967915e-07,0.0,0.0,0.0,1.21846967915e-07,0.0567631870508,0.186293691397,9.79361248016,9e-08,0.0,0.0,0.0,9e-08,0.0,0.0,0.0,9e-08
1560476272086589559,11194,1560476272081792768,base_link,-0.00874542118126,-0.0034226769143,-0.591747253257,-0.806068824822,1.0,0.0,0.0,0.0,1.0,0.0,0.0,0.0,1.0,0.00203053746372,-0.000710490799975,0.000943358929362,1.21846967915e-07,0.0,0.0,0.0,1.21846967915e-07,0.0,0.0,0.0,1.21846967915e-07,0.0580598823726,0.163557589054,9.81653499603,9e-08,0.0,0.0,0.0,9e-08,0.0,0.0,0.0,9e-08
1560476272108870652,11195,1560476272105792768,base_link,-0.00875115348193,-0.00341812604248,-0.591752806104,-0.806064789261,1.0,0.0,0.0,0.0,1.0,0.0,0.0,0.0,1.0,-0.000104782011476,0.000344165717252,0.000437928421889,1.21846967915e-07,0.0,0.0,0.0,1.21846967915e-07,0.0,0.0,0.0,1.21846967915e-07,0.0832483693957,0.207059085369,9.81419372559,9e-08,0.0,0.0,0.0,9e-08,0.0,0.0,0.0,9e-08
1560476272126781031,11196,1560476272121792768,base_link,-0.0087380588183,-0.00341521675748,-0.59175640966,-0.806062281524,1.0,0.0,0.0,0.0,1.0,0.0,0.0,0.0,1.0,-0.000640503130853,-0.000288764829747,0.000229795230553,1.21846967915e-07,0.0,0.0,0.0,1.21846967915e-07,0.0,0.0,0.0,1.21846967915e-07,0.0712454393506,0.188894301653,9.79106903076,9e-08,0.0,0.0,0.0,9e-08,0.0,0.0,0.0,9e-08
1560476272144418906,11197,1560476272141790976,base_link,-0.00874908021919,-0.00341555656645,-0.591763016178,-0.806057276586,1.0,0.0,0.0,0.0,1.0,0.0,0.0,0.0,1.0,0.00170396093745,-0.001138409134,0.000310243514832,1.21846967915e-07,0.0,0.0,0.0,1.21846967915e-07,0.0,0.0,0.0,1.21846967915e-07,0.0619332678616,0.16697499156,9.80683040619,9e-08,0.0,0.0,0.0,9e-08,0.0,0.0,0.0,9e-08
1560476272165415424,11198,1560476272161790976,base_link,-0.00874925819084,-0.00341112571436,-0.591762542026,-0.806057750738,1.0,0.0,0.0,0.0,1.0,0.0,0.0,0.0,1.0,0.000405410770327,0.000664108316414,-0.00127776758745,1.21846967915e-07,0.0,0.0,0.0,1.21846967915e-07,0.0,0.0,0.0,1.21846967915e-07,0.0812761038542,0.148768901825,9.79580593109,9e-08,0.0,0.0,0.0,9e-08,0.0,0.0,0.0,9e-08
1560476272184598941,11199,1560476272181790976,base_link,-0.0087468477533,-0.00340735241897,-0.591761741236,-0.806058298647,1.0,0.0,0.0,0.0,1.0,0.0,0.0,0.0,1.0,-0.00096246675821,0.00045653549023,1.78414047696e-05,1.21846967915e-07,0.0,0.0,0.0,1.21846967915e-07,0.0,0.0,0.0,1.21846967915e-07,0.0416532829404,0.195848926902,9.79046058655,9e-08,0.0,0.0,0.0,9e-08,0.0,0.0,0.0,9e-08
1560476272207826559,11200,1560476272205790976,base_link,-0.00875933095836,-0.00340468942961,-0.591762942421,-0.806057350343,1.0,0.0,0.0,0.0,1.0,0.0,0.0,0.0,1.0,-0.000461617630208,-0.00125020684209,-0.00189820397645,1.21846967915e-07,0.0,0.0,0.0,1.21846967915e-07,0.0,0.0,0.0,1.21846967915e-07,0.0761121958494,0.191310495138,9.83789253235,9e-08,0.0,0.0,0.0,9e-08,0.0,0.0,0.0,9e-08
1560476272224488787,11201,1560476272221790976,base_link,-0.00876146233766,-0.00340770918545,-0.591766145582,-0.806054905825,1.0,0.0,0.0,0.0,1.0,0.0,0.0,0.0,1.0,0.0009474537801,0.00151424156502,-0.000432188913692,1.21846967915e-07,0.0,0.0,0.0,1.21846967915e-07,0.0,0.0,0.0,1.21846967915e-07,0.0393669977784,0.193658858538,9.86891937256,9e-08,0.0,0.0,0.0,9e-08,0.0,0.0,0.0,9e-08
1560476272248009857,11202,1560476272245789184,base_link,-0.00874610804319,-0.00340073486984,-0.591775723453,-0.806048109646,1.0,0.0,0.0,0.0,1.0,0.0,0.0,0.0,1.0,-0.00105205143336,-0.00145541632082,0.00120005686767,1.21846967915e-07,0.0,0.0,0.0,1.21846967915e-07,0.0,0.0,0.0,1.21846967915e-07,0.0200502090156,0.186382442713,9.80893611908,9e-08,0.0,0.0,0.0,9e-08,0.0,0.0,0.0,9e-08
1560476272268774539,11203,1560476272265789184,base_link,-0.00875863816954,-0.00339882838349,-0.591786386606,-0.806040143892,1.0,0.0,0.0,0.0,1.0,0.0,0.0,0.0,1.0,-9.80802578852e-05,-0.000391821376979,0.000968443870079,1.21846967915e-07,0.0,0.0,0.0,1.21846967915e-07,0.0,0.0,0.0,1.21846967915e-07,0.0774335935712,0.172242552042,9.83091640472,9e-08,0.0,0.0,0.0,9e-08,0.0,0.0,0.0,9e-08
1560476272284953662,11204,1560476272281789184,base_link,-0.00876876115108,-0.00339951475151,-0.591784827172,-0.806041197563,1.0,0.0,0.0,0.0,1.0,0.0,0.0,0.0,1.0,-0.000116639654152,-0.000185985118151,-0.000428276485763,1.21846967915e-07,0.0,0.0,0.0,1.21846967915e-07,0.0,0.0,0.0,1.21846967915e-07,0.0470111891627,0.195296108723,9.79865932465,9e-08,0.0,0.0,0.0,9e-08,0.0,0.0,0.0,9e-08
1560476272304186674,11205,1560476272301789184,base_link,-0.00876190026976,-0.00339933447495,-0.591784943076,-0.806041165953,1.0,0.0,0.0,0.0,1.0,0.0,0.0,0.0,1.0,0.000941893900745,0.00204672967084,-0.000866999849677,1.21846967915e-07,0.0,0.0,0.0,1.21846967915e-07,0.0,0.0,0.0,1.21846967915e-07,0.0218529440463,0.166243433952,9.77292346954,9e-08,0.0,0.0,0.0,9e-08,0.0,0.0,0.0,9e-08
1560476272325578649,11206,1560476272321789184,base_link,-0.008768436324,-0.00340477339404,-0.5917889681,-0.806038068159,1.0,0.0,0.0,0.0,1.0,0.0,0.0,0.0,1.0,0.0010728269117,0.000355447962647,0.000949758512434,1.21846967915e-07,0.0,0.0,0.0,1.21846967915e-07,0.0,0.0,0.0,1.21846967915e-07,0.0451104864478,0.159249097109,9.80508899689,9e-08,0.0,0.0,0.0,9e-08,0.0,0.0,0.0,9e-08
1560476272345673861,11207,1560476272342788416,base_link,-0.00876047287454,-0.00340865781882,-0.591788188383,-0.806038763582,1.0,0.0,0.0,0.0,1.0,0.0,0.0,0.0,1.0,0.000634621479549,0.00194533518516,-1.02394842543e-05,1.21846967915e-07,0.0,0.0,0.0,1.21846967915e-07,0.0,0.0,0.0,1.21846967915e-07,0.062962397933,0.183161109686,9.81931114197,9e-08,0.0,0.0,0.0,9e-08,0.0,0.0,0.0,9e-08
1560476272366527885,11208,1560476272362788416,base_link,-0.00876295690442,-0.00340429825418,-0.591786439289,-0.806039922621,1.0,0.0,0.0,0.0,1.0,0.0,0.0,0.0,1.0,-0.000432638684288,3.47067252733e-05,-9.53382113948e-05,1.21846967915e-07,0.0,0.0,0.0,1.21846967915e-07,0.0,0.0,0.0,1.21846967915e-07,0.00986579433084,0.180217564106,9.84035396576,9e-08,0.0,0.0,0.0,9e-08,0.0,0.0,0.0,9e-08
1560476272385511687,11209,1560476272382788416,base_link,-0.00876792397637,-0.00339898478781,-0.591793867671,-0.806034601581,1.0,0.0,0.0,0.0,1.0,0.0,0.0,0.0,1.0,-0.000429610372521,0.00119805615395,7.87188764662e-06,1.21846967915e-07,0.0,0.0,0.0,1.21846967915e-07,0.0,0.0,0.0,1.21846967915e-07,0.0726401954889,0.191708743572,9.83049678802,9e-08,0.0,0.0,0.0,9e-08,0.0,0.0,0.0,9e-08
1560476272405902917,11210,1560476272402788416,base_link,-0.00877710639172,-0.00339889687212,-0.591793340836,-0.806034791242,1.0,0.0,0.0,0.0,1.0,0.0,0.0,0.0,1.0,0.00116413878277,0.000561529421248,-5.7237339206e-06,1.21846967915e-07,0.0,0.0,0.0,1.21846967915e-07,0.0,0.0,0.0,1.21846967915e-07,0.0584482140839,0.215260863304,9.79947757721,9e-08,0.0,0.0,0.0,9e-08,0.0,0.0,0.0,9e-08
1560476272425144593,11211,1560476272422788416,base_link,-0.0087763981271,-0.00339648626995,-0.591793857134,-0.806034527824,1.0,0.0,0.0,0.0,1.0,0.0,0.0,0.0,1.0,-0.000193643558305,-0.000283813045826,0.00182129780296,1.21846967915e-07,0.0,0.0,0.0,1.21846967915e-07,0.0,0.0,0.0,1.21846967915e-07,0.057461053133,0.171117514372,9.80020427704,9e-08,0.0,0.0,0.0,9e-08,0.0,0.0,0.0,9e-08
1560476272446416269,11212,1560476272442786624,base_link,-0.00878311347009,-0.00339584534151,-0.591796154138,-0.806032736583,1.0,0.0,0.0,0.0,1.0,0.0,0.0,0.0,1.0,0.000953008420765,-0.000605507520959,0.000320035323966,1.21846967915e-07,0.0,0.0,0.0,1.21846967915e-07,0.0,0.0,0.0,1.21846967915e-07,0.0804071873426,0.180832400918,9.83910083771,9e-08,0.0,0.0,0.0,9e-08,0.0,0.0,0.0,9e-08
1560476272465651379,11213,1560476272462786624,base_link,-0.00877453872668,-0.00339556529546,-0.591798956903,-0.806030692461,1.0,0.0,0.0,0.0,1.0,0.0,0.0,0.0,1.0,-0.00074633769691,0.000774674408603,0.000542008318007,1.21846967915e-07,0.0,0.0,0.0,1.21846967915e-07,0.0,0.0,0.0,1.21846967915e-07,0.0692604035139,0.168715655804,9.82116508484,9e-08,0.0,0.0,0.0,9e-08,0.0,0.0,0.0,9e-08
1560476272485766727,11214,1560476272482786624,base_link,-0.00877955453093,-0.0033881760968,-0.591797955915,-0.806031440568,1.0,0.0,0.0,0.0,1.0,0.0,0.0,0.0,1.0,0.000320141902193,-0.00177463912405,0.00075764185749,1.21846967915e-07,0.0,0.0,0.0,1.21846967915e-07,0.0,0.0,0.0,1.21846967915e-07,0.0398856252432,0.173549860716,9.79456710815,9e-08,0.0,0.0,0.0,9e-08,0.0,0.0,0.0,9e-08
1560476272505510829,11215,1560476272502786624,base_link,-0.00877920204498,-0.0033861841643,-0.591803519299,-0.806027478764,1.0,0.0,0.0,0.0,1.0,0.0,0.0,0.0,1.0,-0.00179671833757,-0.000500684778672,0.00131734157912,1.21846967915e-07,0.0,0.0,0.0,1.21846967915e-07,0.0,0.0,0.0,1.21846967915e-07,0.0728008970618,0.213191881776,9.77947616577,9e-08,0.0,0.0,0.0,9e-08,0.0,0.0,0.0,9e-08
1560476272525758523,11216,1560476272522786624,base_link,-0.008760849562,-0.00338976154271,-0.59179899905,-0.806030903195,1.0,0.0,0.0,0.0,1.0,0.0,0.0,0.0,1.0,-0.00108121032827,0.000122214609291,-0.000931470014621,1.21846967915e-07,0.0,0.0,0.0,1.21846967915e-07,0.0,0.0,0.0,1.21846967915e-07,0.0532525368035,0.153644293547,9.7396068573,9e-08,0.0,0.0,0.0,9e-08,0.0,0.0,0.0,9e-08
1560476272544931331,11217,1560476272542784576,base_link,-0.00875577448875,-0.00338939703832,-0.591798619728,-0.806031198223,1.0,0.0,0.0,0.0,1.0,0.0,0.0,0.0,1.0,0.000853128382005,2.55790073425e-05,0.000423695833888,1.21846967915e-07,0.0,0.0,0.0,1.21846967915e-07,0.0,0.0,0.0,1.21846967915e-07,0.0754738301039,0.165760010481,9.79968738556,9e-08,0.0,0.0,0.0,9e-08,0.0,0.0,0.0,9e-08
1560476272566294260,11218,1560476272562784576,base_link,-0.00876292463574,-0.00338581883674,-0.591805447518,-0.806026140601,1.0,0.0,0.0,0.0,1.0,0.0,0.0,0.0,1.0,0.000330468494212,0.000987512641586,0.00095859146677,1.21846967915e-07,0.0,0.0,0.0,1.21846967915e-07,0.0,0.0,0.0,1.21846967915e-07,0.110738962889,0.151465341449,9.80072307587,9e-08,0.0,0.0,0.0,9e-08,0.0,0.0,0.0,9e-08
1560476272585503817,11219,1560476272582784576,base_link,-0.00874995229675,-0.00338643819785,-0.591803940768,-0.806027310176,1.0,0.0,0.0,0.0,1.0,0.0,0.0,0.0,1.0,-0.00129387713969,0.000230655830819,-0.00103880348615,1.21846967915e-07,0.0,0.0,0.0,1.21846967915e-07,0.0,0.0,0.0,1.21846967915e-07,0.0789765864611,0.140910133719,9.77598190308,9e-08,0.0,0.0,0.0,9e-08,0.0,0.0,0.0,9e-08
1560476272606153494,11220,1560476272602784576,base_link,-0.00875490784417,-0.0033861859753,-0.591808471554,-0.806023959502,1.0,0.0,0.0,0.0,1.0,0.0,0.0,0.0,1.0,0.00183007272426,-0.000394942588173,0.00169042940252,1.21846967915e-07,0.0,0.0,0.0,1.21846967915e-07,0.0,0.0,0.0,1.21846967915e-07,0.0731959864497,0.181488126516,9.80723285675,9e-08,0.0,0.0,0.0,9e-08,0.0,0.0,0.0,9e-08
1560476272625090964,11221,1560476272622784576,base_link,-0.00875416187788,-0.00337860398774,-0.591810030988,-0.806022821537,1.0,0.0,0.0,0.0,1.0,0.0,0.0,0.0,1.0,-0.00214709248394,0.000230182311498,-0.00113321002573,1.21846967915e-07,0.0,0.0,0.0,1.21846967915e-07,0.0,0.0,0.0,1.21846967915e-07,0.0643181651831,0.184384942055,9.82053089142,9e-08,0.0,0.0,0.0,9e-08,0.0,0.0,0.0,9e-08
1560476272645494317,11222,1560476272642782528,base_link,-0.00873752605579,-0.00339105541803,-0.591807597007,-0.806024834049,1.0,0.0,0.0,0.0,1.0,0.0,0.0,0.0,1.0,0.0010702277068,0.00194192561321,0.000626036839094,1.21846967915e-07,0.0,0.0,0.0,1.21846967915e-07,0.0,0.0,0.0,1.21846967915e-07,0.0558008514345,0.168904408813,9.75820827484,9e-08,0.0,0.0,0.0,9e-08,0.0,0.0,0.0,9e-08
1560476272665315387,11223,1560476272662782528,base_link,-0.00874814442744,-0.00338497441804,-0.591812359601,-0.806021167273,1.0,0.0,0.0,0.0,1.0,0.0,0.0,0.0,1.0,-0.000215301522985,-0.000402053119615,-0.000101844372693,1.21846967915e-07,0.0,0.0,0.0,1.21846967915e-07,0.0,0.0,0.0,1.21846967915e-07,0.0539506711066,0.182623505592,9.83314800262,9e-08,0.0,0.0,0.0,9e-08,0.0,0.0,0.0,9e-08
1560476272686579783,11224,1560476272682782528,base_link,-0.00875084972828,-0.00338588189237,-0.591825930886,-0.806011136323,1.0,0.0,0.0,0.0,1.0,0.0,0.0,0.0,1.0,-0.00116930354852,0.000129240565002,0.000345633307006,1.21846967915e-07,0.0,0.0,0.0,1.21846967915e-07,0.0,0.0,0.0,1.21846967915e-07,0.0444857478142,0.217361241579,9.79934215546,9e-08,0.0,0.0,0.0,9e-08,0.0,0.0,0.0,9e-08
1560476272705267692,11225,1560476272702782528,base_link,-0.00874385071725,-0.00338926681115,-0.591826605236,-0.806010714855,1.0,0.0,0.0,0.0,1.0,0.0,0.0,0.0,1.0,0.000634663796518,-0.00115016452037,0.000217537104618,1.21846967915e-07,0.0,0.0,0.0,1.21846967915e-07,0.0,0.0,0.0,1.21846967915e-07,0.0673249438405,0.160748302937,9.86419773102,9e-08,0.0,0.0,0.0,9e-08,0.0,0.0,0.0,9e-08
1560476272725439230,11226,1560476272722782528,base_link,-0.00875810820585,-0.00338762308405,-0.591836625649,-0.806003307546,1.0,0.0,0.0,0.0,1.0,0.0,0.0,0.0,1.0,-0.000935299962293,-0.000821558758616,0.00194135378115,1.21846967915e-07,0.0,0.0,0.0,1.21846967915e-07,0.0,0.0,0.0,1.21846967915e-07,0.0574827045202,0.195267900825,9.80802154541,9e-08,0.0,0.0,0.0,9e-08,0.0,0.0,0.0,9e-08
1560476272745179647,11227,1560476272742780480,base_link,-0.00875371818352,-0.00338000915709,-0.591842758015,-0.805998861054,1.0,0.0,0.0,0.0,1.0,0.0,0.0,0.0,1.0,-0.000740587594919,0.00129788962658,0.000331629242282,1.21846967915e-07,0.0,0.0,0.0,1.21846967915e-07,0.0,0.0,0.0,1.21846967915e-07,0.0548410713673,0.204786509275,9.82255840302,9e-08,0.0,0.0,0.0,9e-08,0.0,0.0,0.0,9e-08
1560476272765318706,11228,1560476272762780480,base_link,-0.00874761133566,-0.0033858697093,-0.591843906517,-0.805998049727,1.0,0.0,0.0,0.0,1.0,0.0,0.0,0.0,1.0,0.000762778858189,0.000660171790514,0.000743615615647,1.21846967915e-07,0.0,0.0,0.0,1.21846967915e-07,0.0,0.0,0.0,1.21846967915e-07,0.0409078076482,0.15348944068,9.82447052002,9e-08,0.0,0.0,0.0,9e-08,0.0,0.0,0.0,9e-08
1560476272785184238,11229,1560476272782780480,base_link,-0.00875169299452,-0.00339155953385,-0.591849459364,-0.805993845579,1.0,0.0,0.0,0.0,1.0,0.0,0.0,0.0,1.0,-0.000113486254122,0.000443961645942,-0.000310500327032,1.21846967915e-07,0.0,0.0,0.0,1.21846967915e-07,0.0,0.0,0.0,1.21846967915e-07,0.0632354989648,0.211602389812,9.84607982635,9e-08,0.0,0.0,0.0,9e-08,0.0,0.0,0.0,9e-08
1560476272806422244,11230,1560476272802780480,base_link,-0.00874507083559,-0.00339549614828,-0.591850586793,-0.805993223913,1.0,0.0,0.0,0.0,1.0,0.0,0.0,0.0,1.0,-0.000645817955956,0.00331497075967,-0.000204514653888,1.21846967915e-07,0.0,0.0,0.0,1.21846967915e-07,0.0,0.0,0.0,1.21846967915e-07,0.0559784919024,0.1885728091,9.80076599121,9e-08,0.0,0.0,0.0,9e-08,0.0,0.0,0.0,9e-08
1560476272824157182,11231,1560476272818780480,base_link,-0.00873830116268,-0.00339674194986,-0.591851503486,-0.8059925601,1.0,0.0,0.0,0.0,1.0,0.0,0.0,0.0,1.0,0.00094777776394,0.00118763884529,-0.000544028007425,1.21846967915e-07,0.0,0.0,0.0,1.21846967915e-07,0.0,0.0,0.0,1.21846967915e-07,0.0461665578187,0.169418603182,9.7789516449,9e-08,0.0,0.0,0.0,9e-08,0.0,0.0,0.0,9e-08
1560476272848295031,11232,1560476272843778688,base_link,-0.00875419398193,-0.00339139111109,-0.59185078699,-0.805992855128,1.0,0.0,0.0,0.0,1.0,0.0,0.0,0.0,1.0,-0.000738954986446,-0.000728769577108,0.000665016996209,1.21846967915e-07,0.0,0.0,0.0,1.21846967915e-07,0.0,0.0,0.0,1.21846967915e-07,0.0872140750289,0.194597065449,9.78120803833,9e-08,0.0,0.0,0.0,9e-08,0.0,0.0,0.0,9e-08
1560476272866827712,11233,1560476272863778688,base_link,-0.00874737854018,-0.00339557896025,-0.591849828149,-0.805993645381,1.0,0.0,0.0,0.0,1.0,0.0,0.0,0.0,1.0,0.000551647506654,-0.000293782330118,0.00106837972999,1.21846967915e-07,0.0,0.0,0.0,1.21846967915e-07,0.0,0.0,0.0,1.21846967915e-07,0.0663718208671,0.197341114283,9.7884645462,9e-08,0.0,0.0,0.0,9e-08,0.0,0.0,0.0,9e-08
1560476272887802574,11234,1560476272883778688,base_link,-0.00875583606266,-0.00338841218501,-0.591853020773,-0.805991211401,1.0,0.0,0.0,0.0,1.0,0.0,0.0,0.0,1.0,0.00108210579492,-0.000504280964378,0.0014933696948,1.21846967915e-07,0.0,0.0,0.0,1.21846967915e-07,0.0,0.0,0.0,1.21846967915e-07,0.0158850625157,0.174966335297,9.83222293854,9e-08,0.0,0.0,0.0,9e-08,0.0,0.0,0.0,9e-08
1560476272904683196,11235,1560476272899778688,base_link,-0.00875860985213,-0.00338660645597,-0.591866876549,-0.805981064547,1.0,0.0,0.0,0.0,1.0,0.0,0.0,0.0,1.0,-0.000621379469521,0.000872199423611,0.0016215108335,1.21846967915e-07,0.0,0.0,0.0,1.21846967915e-07,0.0,0.0,0.0,1.21846967915e-07,0.0890856087208,0.202072203159,9.7878484726,9e-08,0.0,0.0,0.0,9e-08,0.0,0.0,0.0,9e-08
1560476272923572985,11236,1560476272919778688,base_link,-0.00874393583413,-0.00339133513481,-0.591862240396,-0.805984689176,1.0,0.0,0.0,0.0,1.0,0.0,0.0,0.0,1.0,-0.000650497211609,0.00171788653824,-0.000628878478892,1.21846967915e-07,0.0,0.0,0.0,1.21846967915e-07,0.0,0.0,0.0,1.21846967915e-07,0.0667002871633,0.149947419763,9.78507423401,9e-08,0.0,0.0,0.0,9e-08,0.0,0.0,0.0,9e-08
1560476272946801596,11237,1560476272943775360,base_link,-0.00874297172497,-0.00337509674433,-0.591859574608,-0.805986596321,1.0,0.0,0.0,0.0,1.0,0.0,0.0,0.0,1.0,-2.71643511951e-06,-0.000832457619254,0.000226246193051,1.21846967915e-07,0.0,0.0,0.0,1.21846967915e-07,0.0,0.0,0.0,1.21846967915e-07,0.0440483577549,0.191640794277,9.83646583557,9e-08,0.0,0.0,0.0,9e-08,0.0,0.0,0.0,9e-08
1560476272967332098,11238,1560476272963775360,base_link,-0.00875095970521,-0.00337501920071,-0.591859922319,-0.805986332903,1.0,0.0,0.0,0.0,1.0,0.0,0.0,0.0,1.0,0.000522160087712,-0.000835497688968,-0.000207357807085,1.21846967915e-07,0.0,0.0,0.0,1.21846967915e-07,0.0,0.0,0.0,1.21846967915e-07,0.0738116949797,0.180090039968,9.82529163361,9e-08,0.0,0.0,0.0,9e-08,0.0,0.0,0.0,9e-08
1560476272984093459,11239,1560476272979775360,base_link,-0.00874087574243,-0.00337816210438,-0.591858995089,-0.80598717584,1.0,0.0,0.0,0.0,1.0,0.0,0.0,0.0,1.0,-0.00106143287849,0.000868822855409,0.000116808805615,1.21846967915e-07,0.0,0.0,0.0,1.21846967915e-07,0.0,0.0,0.0,1.21846967915e-07,0.0487914346159,0.136756420135,9.78692340851,9e-08,0.0,0.0,0.0,9e-08,0.0,0.0,0.0,9e-08
1560476273007505788,11240,1560476273003775360,base_link,-0.0087526699453,-0.00337313773906,-0.591862935819,-0.805984078047,1.0,0.0,0.0,0.0,1.0,0.0,0.0,0.0,1.0,0.000326268491335,-0.0029702198226,0.00066586578032,1.21846967915e-07,0.0,0.0,0.0,1.21846967915e-07,0.0,0.0,0.0,1.21846967915e-07,0.0764741078019,0.173475190997,9.78319358826,9e-08,0.0,0.0,0.0,9e-08,0.0,0.0,0.0,9e-08
1560476273027039544,11241,1560476273023773568,base_link,-0.00876204202146,-0.00337127965573,-0.591868183102,-0.805980095169,1.0,0.0,0.0,0.0,1.0,0.0,0.0,0.0,1.0,0.000419882911956,0.00182414497249,-2.57667852566e-06,1.21846967915e-07,0.0,0.0,0.0,1.21846967915e-07,0.0,0.0,0.0,1.21846967915e-07,0.0600215047598,0.190806478262,9.79313755035,9e-08,0.0,0.0,0.0,9e-08,0.0,0.0,0.0,9e-08
1560476273047780367,11242,1560476273043773568,base_link,-0.00875716796893,-0.00337253039638,-0.591868435983,-0.805980010876,1.0,0.0,0.0,0.0,1.0,0.0,0.0,0.0,1.0,-0.000946553074755,-0.00104465405457,0.000987601932138,1.21846967915e-07,0.0,0.0,0.0,1.21846967915e-07,0.0,0.0,0.0,1.21846967915e-07,0.0850784927607,0.142155066133,9.77727127075,9e-08,0.0,0.0,0.0,9e-08,0.0,0.0,0.0,9e-08
1560476273066799250,11243,1560476273063773568,base_link,-0.00877340487768,-0.00336602414128,-0.591872777108,-0.805976681275,1.0,0.0,0.0,0.0,1.0,0.0,0.0,0.0,1.0,0.00109417783096,0.000240624765866,0.00211465125903,1.21846967915e-07,0.0,0.0,0.0,1.21846967915e-07,0.0,0.0,0.0,1.21846967915e-07,0.0964304953814,0.165844038129,9.77899742126,9e-08,0.0,0.0,0.0,9e-08,0.0,0.0,0.0,9e-08
1560476273084768148,11244,1560476273079773568,base_link,-0.00877682618103,-0.00337104537852,-0.591876717839,-0.805973752069,1.0,0.0,0.0,0.0,1.0,0.0,0.0,0.0,1.0,-0.000117857925943,-0.000735372595955,-0.000727824459318,1.21846967915e-07,0.0,0.0,0.0,1.21846967915e-07,0.0,0.0,0.0,1.21846967915e-07,0.0532084777951,0.183099970222,9.78161144257,9e-08,0.0,0.0,0.0,9e-08,0.0,0.0,0.0,9e-08
1560476273105677485,11245,1560476273099773568,base_link,-0.00876296447768,-0.00336906776936,-0.591875179479,-0.805975037548,1.0,0.0,0.0,0.0,1.0,0.0,0.0,0.0,1.0,-0.00193365220912,-0.000198823399842,-0.00124431552831,1.21846967915e-07,0.0,0.0,0.0,1.21846967915e-07,0.0,0.0,0.0,1.21846967915e-07,0.0225022137165,0.173650473356,9.80055522919,9e-08,0.0,0.0,0.0,9e-08,0.0,0.0,0.0,9e-08
1560476273124587416,11246,1560476273119773568,base_link,-0.00878313602524,-0.00334852480271,-0.591877012867,-0.805973541334,1.0,0.0,0.0,0.0,1.0,0.0,0.0,0.0,1.0,0.00147134019062,-0.00105641956907,-0.00127946818247,1.21846967915e-07,0.0,0.0,0.0,1.21846967915e-07,0.0,0.0,0.0,1.21846967915e-07,0.060912899673,0.172516807914,9.8577337265,9e-08,0.0,0.0,0.0,9e-08,0.0,0.0,0.0,9e-08
1560476273144466148,11247,1560476273139771520,base_link,-0.00877921867323,-0.00335466408388,-0.591878498543,-0.805972392833,1.0,0.0,0.0,0.0,1.0,0.0,0.0,0.0,1.0,0.000421355973231,0.00246043270454,-0.00021846202435,1.21846967915e-07,0.0,0.0,0.0,1.21846967915e-07,0.0,0.0,0.0,1.21846967915e-07,0.0547776371241,0.216588810086,9.82570362091,9e-08,0.0,0.0,0.0,9e-08,0.0,0.0,0.0,9e-08
1560476273167074141,11248,1560476273163771520,base_link,-0.00877023118706,-0.00337359032377,-0.591875421823,-0.805974710909,1.0,0.0,0.0,0.0,1.0,0.0,0.0,0.0,1.0,0.00129965029191,0.000866796181072,0.000407130282838,1.21846967915e-07,0.0,0.0,0.0,1.21846967915e-07,0.0,0.0,0.0,1.21846967915e-07,0.0269470475614,0.166355058551,9.776927948,9e-08,0.0,0.0,0.0,9e-08,0.0,0.0,0.0,9e-08
1560476273186438877,11249,1560476273183771520,base_link,-0.00878666664698,-0.00337510810422,-0.591879046452,-0.805971844924,1.0,0.0,0.0,0.0,1.0,0.0,0.0,0.0,1.0,0.000420270778704,-0.000631090661045,-0.000733050284907,1.21846967915e-07,0.0,0.0,0.0,1.21846967915e-07,0.0,0.0,0.0,1.21846967915e-07,0.0558100789785,0.162723273039,9.81808280945,9e-08,0.0,0.0,0.0,9e-08,0.0,0.0,0.0,9e-08
1560476273204579166,11250,1560476273201771520,base_link,-0.00877980625957,-0.00337786444226,-0.591876075099,-0.805974141927,1.0,0.0,0.0,0.0,1.0,0.0,0.0,0.0,1.0,-0.00149894913193,0.000963381200563,-0.00125104864128,1.21846967915e-07,0.0,0.0,0.0,1.21846967915e-07,0.0,0.0,0.0,1.21846967915e-07,0.0730474218726,0.194375514984,9.84494400024,9e-08,0.0,0.0,0.0,9e-08,0.0,0.0,0.0,9e-08
1560476273227061995,11251,1560476273221769728,base_link,-0.00877160606335,-0.00337968070801,-0.591877055013,-0.805973499188,1.0,0.0,0.0,0.0,1.0,0.0,0.0,0.0,1.0,-0.00116813660134,0.000121638528071,0.000347196124494,1.21846967915e-07,0.0,0.0,0.0,1.21846967915e-07,0.0,0.0,0.0,1.21846967915e-07,0.0342753268778,0.139109998941,9.82386493683,9e-08,0.0,0.0,0.0,9e-08,0.0,0.0,0.0,9e-08
1560476273244509766,11252,1560476273241769728,base_link,-0.00878768623851,-0.00337285044901,-0.591879910462,-0.805971318088,1.0,0.0,0.0,0.0,1.0,0.0,0.0,0.0,1.0,0.00106571079232,-0.00211524451151,0.000221746275201,1.21846967915e-07,0.0,0.0,0.0,1.21846967915e-07,0.0,0.0,0.0,1.21846967915e-07,0.0698960274458,0.20133908093,9.81504535675,9e-08,0.0,0.0,0.0,9e-08,0.0,0.0,0.0,9e-08
1560476273268812210,11253,1560476273265769728,base_link,-0.00877297698838,-0.00338475561663,-0.591878951622,-0.805972024048,1.0,0.0,0.0,0.0,1.0,0.0,0.0,0.0,1.0,-0.000330390786985,0.000969195622019,-0.00115926342551,1.21846967915e-07,0.0,0.0,0.0,1.21846967915e-07,0.0,0.0,0.0,1.21846967915e-07,0.0290306173265,0.172666415572,9.79179000854,9e-08,0.0,0.0,0.0,9e-08,0.0,0.0,0.0,9e-08
1560476273286715161,11254,1560476273281769728,base_link,-0.00877265940529,-0.00338097705288,-0.59187405205,-0.805975659214,1.0,0.0,0.0,0.0,1.0,0.0,0.0,0.0,1.0,-0.000639714126009,0.000118216557894,2.05026590265e-05,1.21846967915e-07,0.0,0.0,0.0,1.21846967915e-07,0.0,0.0,0.0,1.21846967915e-07,0.057824101299,0.182438313961,9.83843994141,9e-08,0.0,0.0,0.0,9e-08,0.0,0.0,0.0,9e-08
1560476273308667916,11255,1560476273305769728,base_link,-0.00878254959135,-0.00337552940807,-0.591876370127,-0.805973931193,1.0,0.0,0.0,0.0,1.0,0.0,0.0,0.0,1.0,0.000422172364779,0.00107079965528,0.000314499658998,1.21846967915e-07,0.0,0.0,0.0,1.21846967915e-07,0.0,0.0,0.0,1.21846967915e-07,0.0502303130925,0.168973594904,9.81314468384,9e-08,0.0,0.0,0.0,9e-08,0.0,0.0,0.0,9e-08
1560476273326529979,11256,1560476273321769728,base_link,-0.00877671241747,-0.00337826878859,-0.591875748461,-0.805974384271,1.0,0.0,0.0,0.0,1.0,0.0,0.0,0.0,1.0,0.000418807554524,0.00107492296956,-0.000317093334161,1.21846967915e-07,0.0,0.0,0.0,1.21846967915e-07,0.0,0.0,0.0,1.21846967915e-07,0.0750816315413,0.182318150997,9.80965042114,9e-08,0.0,0.0,0.0,9e-08,0.0,0.0,0.0,9e-08
1560476273345627212,11257,1560476273341767936,base_link,-0.00876991393324,-0.00337966984203,-0.59187786634,-0.805972856448,1.0,0.0,0.0,0.0,1.0,0.0,0.0,0.0,1.0,-0.000734843953978,0.00193095952272,0.000864334520884,1.21846967915e-07,0.0,0.0,0.0,1.21846967915e-07,0.0,0.0,0.0,1.21846967915e-07,0.0438045747578,0.188077628613,9.82230758667,9e-08,0.0,0.0,0.0,9e-08,0.0,0.0,0.0,9e-08
1560476273364552825,11258,1560476273361767936,base_link,-0.008781086964,-0.00336916720958,-0.591880953597,-0.805970527835,1.0,0.0,0.0,0.0,1.0,0.0,0.0,0.0,1.0,0.00042881432455,-0.000838816631585,0.000330047099851,1.21846967915e-07,0.0,0.0,0.0,1.21846967915e-07,0.0,0.0,0.0,1.21846967915e-07,0.0500269159675,0.224228024483,9.82440853119,9e-08,0.0,0.0,0.0,9e-08,0.0,0.0,0.0,9e-08
1560476273387768660,11259,1560476273385767936,base_link,-0.00877440701778,-0.00336655904406,-0.591883355967,-0.805968799814,1.0,0.0,0.0,0.0,1.0,0.0,0.0,0.0,1.0,-0.000522557646036,-0.000292975804769,0.00120415596757,1.21846967915e-07,0.0,0.0,0.0,1.21846967915e-07,0.0,0.0,0.0,1.21846967915e-07,0.0700274258852,0.115534365177,9.82383918762,9e-08,0.0,0.0,0.0,9e-08,0.0,0.0,0.0,9e-08
1560476273409435184,11260,1560476273405767936,base_link,-0.0087830515669,-0.00335913807063,-0.591884430712,-0.80596797795,1.0,0.0,0.0,0.0,1.0,0.0,0.0,0.0,1.0,-0.000196264882106,-0.000622073304839,0.00140177994035,1.21846967915e-07,0.0,0.0,0.0,1.21846967915e-07,0.0,0.0,0.0,1.21846967915e-07,0.0826248824596,0.176696002483,9.77889823914,9e-08,0.0,0.0,0.0,9e-08,0.0,0.0,0.0,9e-08
1560476273428109261,11261,1560476273425765888,base_link,-0.00877625999739,-0.00336048084288,-0.591881659557,-0.80597015905,1.0,0.0,0.0,0.0,1.0,0.0,0.0,0.0,1.0,-0.000935563992243,0.00299495225772,0.00118098827079,1.21846967915e-07,0.0,0.0,0.0,1.21846967915e-07,0.0,0.0,0.0,1.21846967915e-07,0.0577158890665,0.183136075735,9.80157089233,9e-08,0.0,0.0,0.0,9e-08,0.0,0.0,0.0,9e-08
1560476273445134016,11262,1560476273441765888,base_link,-0.00876456572866,-0.00336594791475,-0.59188719133,-0.805966228856,1.0,0.0,0.0,0.0,1.0,0.0,0.0,0.0,1.0,8.38216510601e-06,0.000536578008905,0.00107526686043,1.21846967915e-07,0.0,0.0,0.0,1.21846967915e-07,0.0,0.0,0.0,1.21846967915e-07,0.0246509574354,0.157006174326,9.79490375519,9e-08,0.0,0.0,0.0,9e-08,0.0,0.0,0.0,9e-08
1560476273468367191,11263,1560476273465765888,base_link,-0.00878251946294,-0.00336478179707,-0.591893070816,-0.80596169807,1.0,0.0,0.0,0.0,1.0,0.0,0.0,0.0,1.0,0.00161154777743,-8.43364978209e-05,0.000307906477246,1.21846967915e-07,0.0,0.0,0.0,1.21846967915e-07,0.0,0.0,0.0,1.21846967915e-07,0.0428401082754,0.183323070407,9.86833572388,9e-08,0.0,0.0,0.0,9e-08,0.0,0.0,0.0,9e-08
1560476273484519712,11264,1560476273481765888,base_link,-0.00877936766893,-0.00336711041045,-0.591892491297,-0.805962109002,1.0,0.0,0.0,0.0,1.0,0.0,0.0,0.0,1.0,2.12478335015e-06,0.00181706785224,4.69764927402e-06,1.21846967915e-07,0.0,0.0,0.0,1.21846967915e-07,0.0,0.0,0.0,1.21846967915e-07,0.0655307844281,0.165219128132,9.75346946716,9e-08,0.0,0.0,0.0,9e-08,0.0,0.0,0.0,9e-08
1560476273508575973,11265,1560476273505765888,base_link,-0.00877538577956,-0.00337119766694,-0.591893228867,-0.805961624313,1.0,0.0,0.0,0.0,1.0,0.0,0.0,0.0,1.0,0.001592627028,-0.000101567071397,-0.000218215980567,1.21846967915e-07,0.0,0.0,0.0,1.21846967915e-07,0.0,0.0,0.0,1.21846967915e-07,0.0658059567213,0.152161985636,9.79645061493,9e-08,0.0,0.0,0.0,9e-08,0.0,0.0,0.0,9e-08
1560476273524680002,11266,1560476273521765888,base_link,-0.00877663075795,-0.00336432081591,-0.591894872594,-0.805960317761,1.0,0.0,0.0,0.0,1.0,0.0,0.0,0.0,1.0,0.000659258570522,-0.000836166611407,0.00160522782244,1.21846967915e-07,0.0,0.0,0.0,1.21846967915e-07,0.0,0.0,0.0,1.21846967915e-07,0.0900440663099,0.195125475526,9.83069419861,9e-08,0.0,0.0,0.0,9e-08,0.0,0.0,0.0,9e-08
1560476273545517262,11267,1560476273541763840,base_link,-0.00877531465675,-0.00336025924266,-0.591896842959,-0.805959021745,1.0,0.0,0.0,0.0,1.0,0.0,0.0,0.0,1.0,-0.000743958924431,0.0002209066879,0.000129040679894,1.21846967915e-07,0.0,0.0,0.0,1.21846967915e-07,0.0,0.0,0.0,1.21846967915e-07,0.0558716580272,0.162671864033,9.80389213562,9e-08,0.0,0.0,0.0,9e-08,0.0,0.0,0.0,9e-08
1560476273564948401,11268,1560476273561763840,base_link,-0.00877047995225,-0.00335568202905,-0.591901489649,-0.805955723754,1.0,0.0,0.0,0.0,1.0,0.0,0.0,0.0,1.0,-0.00106170657091,-0.00063016981585,0.000244031718466,1.21846967915e-07,0.0,0.0,0.0,1.21846967915e-07,0.0,0.0,0.0,1.21846967915e-07,0.051968306303,0.175003930926,9.79680728912,9e-08,0.0,0.0,0.0,9e-08,0.0,0.0,0.0,9e-08
1560476273585527099,11269,1560476273582763840,base_link,-0.00877813059307,-0.00335522796262,-0.591904397781,-0.805953405678,1.0,0.0,0.0,0.0,1.0,0.0,0.0,0.0,1.0,0.000213487859583,-0.000309653405566,0.000537973770406,1.21846967915e-07,0.0,0.0,0.0,1.21846967915e-07,0.0,0.0,0.0,1.21846967915e-07,0.0881639868021,0.181709378958,9.7978811264,9e-08,0.0,0.0,0.0,9e-08,0.0,0.0,0.0,9e-08
1560476273604921925,11270,1560476273602763840,base_link,-0.00877054070298,-0.00336151261749,-0.59190722162,-0.805951340482,1.0,0.0,0.0,0.0,1.0,0.0,0.0,0.0,1.0,-0.000310840376187,0.00033965986222,-0.000193454674445,1.21846967915e-07,0.0,0.0,0.0,1.21846967915e-07,0.0,0.0,0.0,1.21846967915e-07,0.0885704010725,0.169717878103,9.78997707367,9e-08,0.0,0.0,0.0,9e-08,0.0,0.0,0.0,9e-08
1560476273625442880,11271,1560476273622763840,base_link,-0.00876991525033,-0.00335873339503,-0.591913448817,-0.805946799159,1.0,0.0,0.0,0.0,1.0,0.0,0.0,0.0,1.0,1.30117987283e-05,-0.000843034067657,0.000868322269525,1.21846967915e-07,0.0,0.0,0.0,1.21846967915e-07,0.0,0.0,0.0,1.21846967915e-07,0.0693608522415,0.154577612877,9.81548500061,9e-08,0.0,0.0,0.0,9e-08,0.0,0.0,0.0,9e-08
1560476273645022637,11272,1560476273642761792,base_link,-0.008772039221,-0.00336178163292,-0.591912563733,-0.805947431362,1.0,0.0,0.0,0.0,1.0,0.0,0.0,0.0,1.0,-0.000950464163907,-0.000308480171952,0.000773564097472,1.21846967915e-07,0.0,0.0,0.0,1.21846967915e-07,0.0,0.0,0.0,1.21846967915e-07,0.0633975788951,0.162020370364,9.75944137573,9e-08,0.0,0.0,0.0,9e-08,0.0,0.0,0.0,9e-08
1560476273665640541,11273,1560476273662761792,base_link,-0.0087629518007,-0.00336001887391,-0.591914860736,-0.805945977295,1.0,0.0,0.0,0.0,1.0,0.0,0.0,0.0,1.0,-0.000541748537216,-0.000531696947291,-0.00103923294228,1.21846967915e-07,0.0,0.0,0.0,1.21846967915e-07,0.0,0.0,0.0,1.21846967915e-07,0.0367911867797,0.174526244402,9.83048248291,9e-08,0.0,0.0,0.0,9e-08,0.0,0.0,0.0,9e-08
1560476273684980941,11274,1560476273682761792,base_link,-0.00877438890781,-0.00335584682982,-0.591917031299,-0.805944228201,1.0,0.0,0.0,0.0,1.0,0.0,0.0,0.0,1.0,-0.000100987337646,-0.00190761103295,0.000450667750556,1.21846967915e-07,0.0,0.0,0.0,1.21846967915e-07,0.0,0.0,0.0,1.21846967915e-07,0.0368557162583,0.168246105313,9.7685956955,9e-08,0.0,0.0,0.0,9e-08,0.0,0.0,0.0,9e-08
1560476273705350702,11275,1560476273702761792,base_link,-0.00878566961059,-0.00335660036937,-0.591922552536,-0.805940055663,1.0,0.0,0.0,0.0,1.0,0.0,0.0,0.0,1.0,0.00084229290951,6.00935891271e-06,-0.000631395960227,1.21846967915e-07,0.0,0.0,0.0,1.21846967915e-07,0.0,0.0,0.0,1.21846967915e-07,0.0887411087751,0.205531895161,9.80598258972,9e-08,0.0,0.0,0.0,9e-08,0.0,0.0,0.0,9e-08
1560476273725200297,11276,1560476273722761792,base_link,-0.00877136437752,-0.0033589438,-0.59192097203,-0.805941383289,1.0,0.0,0.0,0.0,1.0,0.0,0.0,0.0,1.0,-0.00172108015977,0.00159781519324,-0.00124705000781,1.21846967915e-07,0.0,0.0,0.0,1.21846967915e-07,0.0,0.0,0.0,1.21846967915e-07,0.0247072577477,0.168376609683,9.78820323944,9e-08,0.0,0.0,0.0,9e-08,0.0,0.0,0.0,9e-08
1560476273746435250,11277,1560476273742759744,base_link,-0.00877519941146,-0.00335003929044,-0.591925418522,-0.805938032615,1.0,0.0,0.0,0.0,1.0,0.0,0.0,0.0,1.0,-0.00190867006313,-0.00127320690081,0.000579490733799,1.21846967915e-07,0.0,0.0,0.0,1.21846967915e-07,0.0,0.0,0.0,1.21846967915e-07,0.0440984852612,0.185485571623,9.81248188019,9e-08,0.0,0.0,0.0,9e-08,0.0,0.0,0.0,9e-08
1560476273765353179,11278,1560476273762759744,base_link,-0.00876887903055,-0.00334657369996,-0.591922858101,-0.80594000298,1.0,0.0,0.0,0.0,1.0,0.0,0.0,0.0,1.0,0.000404249643907,0.00180556904525,-0.00159634230658,1.21846967915e-07,0.0,0.0,0.0,1.21846967915e-07,0.0,0.0,0.0,1.21846967915e-07,0.0491998791695,0.195455417037,9.80438613892,9e-08,0.0,0.0,0.0,9e-08,0.0,0.0,0.0,9e-08
1560476273786293748,11279,1560476273782759744,base_link,-0.00876710079574,-0.0033538402447,-0.591923511377,-0.805939518291,1.0,0.0,0.0,0.0,1.0,0.0,0.0,0.0,1.0,0.00106777215842,0.000324448337778,0.000316540186759,1.21846967915e-07,0.0,0.0,0.0,1.21846967915e-07,0.0,0.0,0.0,1.21846967915e-07,0.0178278312087,0.181233927608,9.81224155426,9e-08,0.0,0.0,0.0,9e-08,0.0,0.0,0.0,9e-08
1560476273805316083,11280,1560476273802759744,base_link,-0.00877655831805,-0.00334506234032,-0.591923384937,-0.805939476144,1.0,0.0,0.0,0.0,1.0,0.0,0.0,0.0,1.0,0.000852896249853,-0.000421765784267,0.00010857952293,1.21846967915e-07,0.0,0.0,0.0,1.21846967915e-07,0.0,0.0,0.0,1.21846967915e-07,0.0193291008472,0.204732745886,9.85172462463,9e-08,0.0,0.0,0.0,9e-08,0.0,0.0,0.0,9e-08
1560476273823610900,11281,1560476273818759744,base_link,-0.00878164969028,-0.00335402694207,-0.591924586122,-0.80593852784,1.0,0.0,0.0,0.0,1.0,0.0,0.0,0.0,1.0,9.69914253801e-06,0.00268095429055,0.000961486599408,1.21846967915e-07,0.0,0.0,0.0,1.21846967915e-07,0.0,0.0,0.0,1.21846967915e-07,0.0825956687331,0.204943418503,9.84826755524,9e-08,0.0,0.0,0.0,9e-08,0.0,0.0,0.0,9e-08
1560476273845193325,11282,1560476273842757696,base_link,-0.00876590471428,-0.00335970277255,-0.591929454083,-0.805935261459,1.0,0.0,0.0,0.0,1.0,0.0,0.0,0.0,1.0,0.00118028745055,0.000112380366772,0.000634372408967,1.21846967915e-07,0.0,0.0,0.0,1.21846967915e-07,0.0,0.0,0.0,1.21846967915e-07,0.0103290230036,0.180180639029,9.78250980377,9e-08,0.0,0.0,0.0,9e-08,0.0,0.0,0.0,9e-08
1560476273866596651,11283,1560476273862757696,base_link,-0.00877565512426,-0.00335274327419,-0.591929854478,-0.805934692477,1.0,0.0,0.0,0.0,1.0,0.0,0.0,0.0,1.0,0.00140086212195,0.000649448076729,0.00148527568672,1.21846967915e-07,0.0,0.0,0.0,1.21846967915e-07,0.0,0.0,0.0,1.21846967915e-07,0.061199773103,0.192501530051,9.77974319458,9e-08,0.0,0.0,0.0,9e-08,0.0,0.0,0.0,9e-08
1560476273885439653,11284,1560476273882757696,base_link,-0.0087668982933,-0.00336203747747,-0.591932530803,-0.805932859089,1.0,0.0,0.0,0.0,1.0,0.0,0.0,0.0,1.0,0.00170495500788,0.00149321625941,8.55831312947e-05,1.21846967915e-07,0.0,0.0,0.0,1.21846967915e-07,0.0,0.0,0.0,1.21846967915e-07,0.046746596694,0.206406056881,9.7980928421,9e-08,0.0,0.0,0.0,9e-08,0.0,0.0,0.0,9e-08
1560476273905363890,11285,1560476273902757696,base_link,-0.00877490619452,-0.00336234831047,-0.591929633207,-0.805934829454,1.0,0.0,0.0,0.0,1.0,0.0,0.0,0.0,1.0,0.000753763597459,0.000659800949506,0.000654191884678,1.21846967915e-07,0.0,0.0,0.0,1.21846967915e-07,0.0,0.0,0.0,1.21846967915e-07,0.0351796112955,0.177079334855,9.81491661072,9e-08,0.0,0.0,0.0,9e-08,0.0,0.0,0.0,9e-08
