%time,field.header.seq,field.header.stamp,field.header.frame_id,field.orientation.x,field.orientation.y,field.orientation.z,field.orientation.w,field.orientation_covariance0,field.orientation_covariance1,field.orientation_covariance2,field.orientation_covariance3,field.orientation_covariance4,field.orientation_covariance5,field.orientation_covariance6,field.orientation_covariance7,field.orientation_covariance8,field.angular_velocity.x,field.angular_velocity.y,field.angular_velocity.z,field.angular_velocity_covariance0,field.angular_velocity_covariance1,field.angular_velocity_covariance2,field.angular_velocity_covariance3,field.angular_velocity_covariance4,field.angular_velocity_covariance5,field.angular_velocity_covariance6,field.angular_velocity_covariance7,field.angular_velocity_covariance8,field.linear_acceleration.x,field.linear_acceleration.y,field.linear_acceleration.z,field.linear_acceleration_covariance0,field.linear_acceleration_covariance1,field.linear_acceleration_covariance2,field.linear_acceleration_covariance3,field.linear_acceleration_covariance4,field.linear_acceleration_covariance5,field.linear_acceleration_covariance6,field.linear_acceleration_covariance7,field.linear_acceleration_covariance8
1560476569408162382,26056,1560476569334819584,base_link,-0.0133225246424,-0.000346749366689,-0.590614714754,-0.806843789462,1.0,0.0,0.0,0.0,1.0,0.0,0.0,0.0,1.0,-0.000741148949601,0.00260281912051,-0.00143592990935,1.21846967915e-07,0.0,0.0,0.0,1.21846967915e-07,0.0,0.0,0.0,1.21846967915e-07,0.13260127604,0.233537688851,9.78981208801,9e-08,0.0,0.0,0.0,9e-08,0.0,0.0,0.0,9e-08
1560476569408218115,26057,1560476569354819584,base_link,-0.0133277021194,-0.00034930451938,-0.590599078273,-0.806855042671,1.0,0.0,0.0,0.0,1.0,0.0,0.0,0.0,1.0,0.000632349518128,0.000151486776303,-0.00218772888184,1.21846967915e-07,0.0,0.0,0.0,1.21846967915e-07,0.0,0.0,0.0,1.21846967915e-07,0.162084430456,0.218004614115,9.82059288025,9e-08,0.0,0.0,0.0,9e-08,0.0,0.0,0.0,9e-08
1560476569408300563,26058,1560476569374819584,base_link,-0.0133327511801,-0.000348825757522,-0.590587235008,-0.806863598481,1.0,0.0,0.0,0.0,1.0,0.0,0.0,0.0,1.0,0.000325557164615,-0.000380678509828,-0.00164906226564,1.21846967915e-07,0.0,0.0,0.0,1.21846967915e-07,0.0,0.0,0.0,1.21846967915e-07,0.129894956946,0.252135038376,9.80739021301,9e-08,0.0,0.0,0.0,9e-08,0.0,0.0,0.0,9e-08
1560476569408364712,26059,1560476569394819584,base_link,-0.013325403799,-0.000353779987856,-0.590577046008,-0.806871258671,1.0,0.0,0.0,0.0,1.0,0.0,0.0,0.0,1.0,-0.000201886155992,0.000480545277242,-0.00100938230753,1.21846967915e-07,0.0,0.0,0.0,1.21846967915e-07,0.0,0.0,0.0,1.21846967915e-07,0.141941338778,0.197215288877,9.84607219696,9e-08,0.0,0.0,0.0,9e-08,0.0,0.0,0.0,9e-08
1560476569421332462,26060,1560476569418819584,base_link,-0.0133288532552,-0.000354501752637,-0.59056829,-0.806877485868,1.0,0.0,0.0,0.0,1.0,0.0,0.0,0.0,1.0,0.00118455779739,0.000906987988856,-0.000602694926783,1.21846967915e-07,0.0,0.0,0.0,1.21846967915e-07,0.0,0.0,0.0,1.21846967915e-07,0.126399517059,0.207980215549,9.82112312317,9e-08,0.0,0.0,0.0,9e-08,0.0,0.0,0.0,9e-08
1560476569437227059,26061,1560476569434817536,base_link,-0.0133324719572,-0.00035265716947,-0.590556067414,-0.806886505293,1.0,0.0,0.0,0.0,1.0,0.0,0.0,0.0,1.0,0.000521267706063,0.000575601414312,-0.00229505891912,1.21846967915e-07,0.0,0.0,0.0,1.21846967915e-07,0.0,0.0,0.0,1.21846967915e-07,0.180963665247,0.226681679487,9.83829116821,9e-08,0.0,0.0,0.0,9e-08,0.0,0.0,0.0,9e-08
1560476569460978264,26062,1560476569458817536,base_link,-0.0133215269475,-0.000354643339706,-0.590530579107,-0.806905250104,1.0,0.0,0.0,0.0,1.0,0.0,0.0,0.0,1.0,0.000226706062676,0.00175634818152,-0.0016588405706,1.21846967915e-07,0.0,0.0,0.0,1.21846967915e-07,0.0,0.0,0.0,1.21846967915e-07,0.141328021884,0.203739374876,9.80627250671,9e-08,0.0,0.0,0.0,9e-08,0.0,0.0,0.0,9e-08
1560476569479461102,26063,1560476569474817536,base_link,-0.0133257758767,-0.000349824110996,-0.590520369033,-0.806912678486,1.0,0.0,0.0,0.0,1.0,0.0,0.0,0.0,1.0,0.00107019813731,-0.00144420424476,-0.00133779691532,1.21846967915e-07,0.0,0.0,0.0,1.21846967915e-07,0.0,0.0,0.0,1.21846967915e-07,0.134031280875,0.166739732027,9.85386371613,9e-08,0.0,0.0,0.0,9e-08,0.0,0.0,0.0,9e-08
1560476569497742431,26064,1560476569494817536,base_link,-0.0133335052136,-0.000354728291947,-0.590505227778,-0.806923605057,1.0,0.0,0.0,0.0,1.0,0.0,0.0,0.0,1.0,-0.000129596781335,0.000470864993986,-0.00260430620983,1.21846967915e-07,0.0,0.0,0.0,1.21846967915e-07,0.0,0.0,0.0,1.21846967915e-07,0.158814176917,0.224220305681,9.80174636841,9e-08,0.0,0.0,0.0,9e-08,0.0,0.0,0.0,9e-08
1560476569518883889,26065,1560476569514817536,base_link,-0.0133271983328,-0.000359918281215,-0.590494490868,-0.806931644568,1.0,0.0,0.0,0.0,1.0,0.0,0.0,0.0,1.0,-0.000745298806578,0.000155898102093,-0.00142608792521,1.21846967915e-07,0.0,0.0,0.0,1.21846967915e-07,0.0,0.0,0.0,1.21846967915e-07,0.175379633904,0.172326385975,9.8091211319,9e-08,0.0,0.0,0.0,9e-08,0.0,0.0,0.0,9e-08
1560476569538237291,26066,1560476569535814208,base_link,-0.0133350765008,-0.000351971624637,-0.590482342039,-0.806940337356,1.0,0.0,0.0,0.0,1.0,0.0,0.0,0.0,1.0,0.000748222926632,-0.000791172496974,-0.000904563814402,1.21846967915e-07,0.0,0.0,0.0,1.21846967915e-07,0.0,0.0,0.0,1.21846967915e-07,0.15127722919,0.219280809164,9.7908744812,9e-08,0.0,0.0,0.0,9e-08,0.0,0.0,0.0,9e-08
1560476569558240242,26067,1560476569555814208,base_link,-0.0133314716281,-0.000352547192537,-0.590468981488,-0.806950157571,1.0,0.0,0.0,0.0,1.0,0.0,0.0,0.0,1.0,-0.000969199463725,0.00186072243378,-0.00195742514916,1.21846967915e-07,0.0,0.0,0.0,1.21846967915e-07,0.0,0.0,0.0,1.21846967915e-07,0.16472017765,0.202679157257,9.80592060089,9e-08,0.0,0.0,0.0,9e-08,0.0,0.0,0.0,9e-08
1560476569579064743,26068,1560476569575814208,base_link,-0.0133281176609,-0.000350975246796,-0.590455030881,-0.806960483549,1.0,0.0,0.0,0.0,1.0,0.0,0.0,0.0,1.0,0.00128877582029,-0.0015410464257,-0.000595346326008,1.21846967915e-07,0.0,0.0,0.0,1.21846967915e-07,0.0,0.0,0.0,1.21846967915e-07,0.135032296181,0.196442574263,9.78730773926,9e-08,0.0,0.0,0.0,9e-08,0.0,0.0,0.0,9e-08
1560476569599238442,26069,1560476569595814208,base_link,-0.0133316237519,-0.000347275543751,-0.590442450047,-0.806969608342,1.0,0.0,0.0,0.0,1.0,0.0,0.0,0.0,1.0,0.00148933962919,-0.000270544638624,-0.00145488372073,1.21846967915e-07,0.0,0.0,0.0,1.21846967915e-07,0.0,0.0,0.0,1.21846967915e-07,0.182173460722,0.204704463482,9.81682872772,9e-08,0.0,0.0,0.0,9e-08,0.0,0.0,0.0,9e-08
1560476569618240851,26070,1560476569615814208,base_link,-0.0133360985618,-0.000346115846872,-0.590426307804,-0.806981367313,1.0,0.0,0.0,0.0,1.0,0.0,0.0,0.0,1.0,0.00201925844885,-0.000811124162283,-0.00220281397924,1.21846967915e-07,0.0,0.0,0.0,1.21846967915e-07,0.0,0.0,0.0,1.21846967915e-07,0.16406570375,0.198131859303,9.81752586365,9e-08,0.0,0.0,0.0,9e-08,0.0,0.0,0.0,9e-08
1560476569636671947,26071,1560476569631812416,base_link,-0.0133396533851,-0.000345969649991,-0.590423589332,-0.806983327141,1.0,0.0,0.0,0.0,1.0,0.0,0.0,0.0,1.0,0.000347921770299,0.0002684929932,0.000361599493772,1.21846967915e-07,0.0,0.0,0.0,1.21846967915e-07,0.0,0.0,0.0,1.21846967915e-07,0.138145104051,0.183590859175,9.76216220856,9e-08,0.0,0.0,0.0,9e-08,0.0,0.0,0.0,9e-08
1560476569658436382,26072,1560476569655812416,base_link,-0.0133350784764,-0.000334610415773,-0.590398648935,-0.807001608337,1.0,0.0,0.0,0.0,1.0,0.0,0.0,0.0,1.0,0.000198011955945,-0.00123696075752,-0.00238863937557,1.21846967915e-07,0.0,0.0,0.0,1.21846967915e-07,0.0,0.0,0.0,1.21846967915e-07,0.179954499006,0.180794656277,9.79045772552,9e-08,0.0,0.0,0.0,9e-08,0.0,0.0,0.0,9e-08
1560476569678858178,26073,1560476569675812416,base_link,-0.0133335256284,-0.000328503074006,-0.590387964709,-0.807009426577,1.0,0.0,0.0,0.0,1.0,0.0,0.0,0.0,1.0,-0.000728396873455,0.00122239394113,-0.000477592926472,1.21846967915e-07,0.0,0.0,0.0,1.21846967915e-07,0.0,0.0,0.0,1.21846967915e-07,0.147467076778,0.165531486273,9.77872467041,9e-08,0.0,0.0,0.0,9e-08,0.0,0.0,0.0,9e-08
1560476569698394405,26074,1560476569695812416,base_link,-0.0133409816694,-0.000333832016165,-0.590365953517,-0.807025368623,1.0,0.0,0.0,0.0,1.0,0.0,0.0,0.0,1.0,0.00145172420889,-0.000181798561243,-0.0045467778109,1.21846967915e-07,0.0,0.0,0.0,1.21846967915e-07,0.0,0.0,0.0,1.21846967915e-07,0.163942337036,0.225639924407,9.83696651459,9e-08,0.0,0.0,0.0,9e-08,0.0,0.0,0.0,9e-08
1560476569719116299,26075,1560476569715812416,base_link,-0.0133447696174,-0.000329837285179,-0.590356322962,-0.807032386073,1.0,0.0,0.0,0.0,1.0,0.0,0.0,0.0,1.0,-0.000427861174103,-0.000698724063113,-0.00143624190241,1.21846967915e-07,0.0,0.0,0.0,1.21846967915e-07,0.0,0.0,0.0,1.21846967915e-07,0.136341929436,0.182419642806,9.83655738831,9e-08,0.0,0.0,0.0,9e-08,0.0,0.0,0.0,9e-08
1560476569738566292,26076,1560476569735810112,base_link,-0.0133495941144,-0.000331324278678,-0.590347377294,-0.80703880293,1.0,0.0,0.0,0.0,1.0,0.0,0.0,0.0,1.0,0.000210933343624,0.000901177641936,-0.00145266205072,1.21846967915e-07,0.0,0.0,0.0,1.21846967915e-07,0.0,0.0,0.0,1.21846967915e-07,0.150293037295,0.186174944043,9.8056344986,9e-08,0.0,0.0,0.0,9e-08,0.0,0.0,0.0,9e-08
1560476569758544589,26077,1560476569755810112,base_link,-0.0133498278977,-0.000323959775445,-0.590333532054,-0.807049107835,1.0,0.0,0.0,0.0,1.0,0.0,0.0,0.0,1.0,0.0011656107381,-0.00165503518656,-0.00156426860485,1.21846967915e-07,0.0,0.0,0.0,1.21846967915e-07,0.0,0.0,0.0,1.21846967915e-07,0.121922135353,0.195392251015,9.75366687775,9e-08,0.0,0.0,0.0,9e-08,0.0,0.0,0.0,9e-08
1560476569778676741,26078,1560476569775810112,base_link,-0.013358331683,-0.000322346999945,-0.590326609434,-0.807053838819,1.0,0.0,0.0,0.0,1.0,0.0,0.0,0.0,1.0,-0.00073681800859,-0.000373925169697,-0.00111758243293,1.21846967915e-07,0.0,0.0,0.0,1.21846967915e-07,0.0,0.0,0.0,1.21846967915e-07,0.151172444224,0.204663306475,9.7996006012,9e-08,0.0,0.0,0.0,9e-08,0.0,0.0,0.0,9e-08
1560476569798978049,26079,1560476569795810112,base_link,-0.013355535503,-0.000318785591246,-0.590318085234,-0.807060087089,1.0,0.0,0.0,0.0,1.0,0.0,0.0,0.0,1.0,0.000544155831449,0.000266561022727,-6.55972398818e-05,1.21846967915e-07,0.0,0.0,0.0,1.21846967915e-07,0.0,0.0,0.0,1.21846967915e-07,0.15532553196,0.218949958682,9.83491230011,9e-08,0.0,0.0,0.0,9e-08,0.0,0.0,0.0,9e-08
1560476569818083842,26080,1560476569815810112,base_link,-0.0133643092915,-0.000316353586378,-0.590306958466,-0.807068263578,1.0,0.0,0.0,0.0,1.0,0.0,0.0,0.0,1.0,0.000646732398309,-0.00144443800673,-0.00165982916951,1.21846967915e-07,0.0,0.0,0.0,1.21846967915e-07,0.0,0.0,0.0,1.21846967915e-07,0.152519896626,0.17383402586,9.80640220642,9e-08,0.0,0.0,0.0,9e-08,0.0,0.0,0.0,9e-08
1560476569839193697,26081,1560476569835808064,base_link,-0.013366351438,-0.00031524657306,-0.59030242768,-0.807071529958,1.0,0.0,0.0,0.0,1.0,0.0,0.0,0.0,1.0,0.000538005377166,-5.41001500096e-05,-0.00102262850851,1.21846967915e-07,0.0,0.0,0.0,1.21846967915e-07,0.0,0.0,0.0,1.21846967915e-07,0.150694862008,0.204698175192,9.80648899078,9e-08,0.0,0.0,0.0,9e-08,0.0,0.0,0.0,9e-08
1560476569858599507,26082,1560476569855808064,base_link,-0.0133665588795,-0.000316094119842,-0.590283956823,-0.807085027487,1.0,0.0,0.0,0.0,1.0,0.0,0.0,0.0,1.0,0.00040445313789,0.000252601515967,-0.00283519062214,1.21846967915e-07,0.0,0.0,0.0,1.21846967915e-07,0.0,0.0,0.0,1.21846967915e-07,0.150428146124,0.219920605421,9.82302761078,9e-08,0.0,0.0,0.0,9e-08,0.0,0.0,0.0,9e-08
1560476569879494701,26083,1560476569875808064,base_link,-0.0133726760994,-0.000312185658187,-0.590274947934,-0.807091423271,1.0,0.0,0.0,0.0,1.0,0.0,0.0,0.0,1.0,0.000546048511751,-0.00122302479576,0.000153845641762,1.21846967915e-07,0.0,0.0,0.0,1.21846967915e-07,0.0,0.0,0.0,1.21846967915e-07,0.135521546006,0.207488834858,9.82809925079,9e-08,0.0,0.0,0.0,9e-08,0.0,0.0,0.0,9e-08
1560476569898064382,26084,1560476569895808064,base_link,-0.0133867676348,-0.00031250307664,-0.590266897886,-0.807097028802,1.0,0.0,0.0,0.0,1.0,0.0,0.0,0.0,1.0,0.00245744548738,-0.000694707443472,-0.000515867373906,1.21846967915e-07,0.0,0.0,0.0,1.21846967915e-07,0.0,0.0,0.0,1.21846967915e-07,0.13002641499,0.231006354094,9.76197147369,9e-08,0.0,0.0,0.0,9e-08,0.0,0.0,0.0,9e-08
1560476569919341036,26085,1560476569915808064,base_link,-0.0133818002336,-0.000317187303725,-0.590253558409,-0.807106912238,1.0,0.0,0.0,0.0,1.0,0.0,0.0,0.0,1.0,0.000527288531885,0.000376179377781,-0.00166634214111,1.21846967915e-07,0.0,0.0,0.0,1.21846967915e-07,0.0,0.0,0.0,1.21846967915e-07,0.107187859714,0.250910371542,9.80571842194,9e-08,0.0,0.0,0.0,9e-08,0.0,0.0,0.0,9e-08
1560476569938623753,26086,1560476569935805248,base_link,-0.0133903705318,-0.000315346013281,-0.590245803389,-0.807112559915,1.0,0.0,0.0,0.0,1.0,0.0,0.0,0.0,1.0,-9.20994352782e-05,0.00367205240764,-7.70478509367e-05,1.21846967915e-07,0.0,0.0,0.0,1.21846967915e-07,0.0,0.0,0.0,1.21846967915e-07,0.181931972504,0.223901554942,9.76720619202,9e-08,0.0,0.0,0.0,9e-08,0.0,0.0,0.0,9e-08
1560476569958808777,26087,1560476569955805248,base_link,-0.0134020787946,-0.000321090497024,-0.590230103688,-0.807123876344,1.0,0.0,0.0,0.0,1.0,0.0,0.0,0.0,1.0,0.00242031225935,-0.00283406325616,-0.00337585294619,1.21846967915e-07,0.0,0.0,0.0,1.21846967915e-07,0.0,0.0,0.0,1.21846967915e-07,0.166128233075,0.207206904888,9.78140926361,9e-08,0.0,0.0,0.0,9e-08,0.0,0.0,0.0,9e-08
1560476569978325860,26088,1560476569975805248,base_link,-0.0134011917352,-0.000325333499289,-0.590213329242,-0.80713609893,1.0,0.0,0.0,0.0,1.0,0.0,0.0,0.0,1.0,-0.00117828836665,0.000681077945046,-0.00100502977148,1.21846967915e-07,0.0,0.0,0.0,1.21846967915e-07,0.0,0.0,0.0,1.21846967915e-07,0.14291511476,0.186563819647,9.80502033234,9e-08,0.0,0.0,0.0,9e-08,0.0,0.0,0.0,9e-08
1560476570000487437,26089,1560476569995805248,base_link,-0.0134118588391,-0.000322352926846,-0.590203108631,-0.807143284968,1.0,0.0,0.0,0.0,1.0,0.0,0.0,0.0,1.0,0.000942175043747,-0.000168691738509,-0.00198833621107,1.21846967915e-07,0.0,0.0,0.0,1.21846967915e-07,0.0,0.0,0.0,1.21846967915e-07,0.167117893696,0.205409780145,9.79104423523,9e-08,0.0,0.0,0.0,9e-08,0.0,0.0,0.0,9e-08
1560476570017476544,26090,1560476570011805248,base_link,-0.0134058015467,-0.00031979118871,-0.590193446466,-0.807150586909,1.0,0.0,0.0,0.0,1.0,0.0,0.0,0.0,1.0,0.000948350760154,0.000157074508024,-0.00113401550334,1.21846967915e-07,0.0,0.0,0.0,1.21846967915e-07,0.0,0.0,0.0,1.21846967915e-07,0.174812600017,0.146095514297,9.78450870514,9e-08,0.0,0.0,0.0,9e-08,0.0,0.0,0.0,9e-08
1560476570040005519,26091,1560476570036803200,base_link,-0.0134234584421,-0.000317832677343,-0.590182593653,-0.807158152269,1.0,0.0,0.0,0.0,1.0,0.0,0.0,0.0,1.0,-0.000436383328633,-0.0012313995976,-0.00164470123127,1.21846967915e-07,0.0,0.0,0.0,1.21846967915e-07,0.0,0.0,0.0,1.21846967915e-07,0.196571439505,0.190371245146,9.82496833801,9e-08,0.0,0.0,0.0,9e-08,0.0,0.0,0.0,9e-08
1560476570059430546,26092,1560476570056803200,base_link,-0.0134139194249,-0.000321078643223,-0.590162805707,-0.807172714005,1.0,0.0,0.0,0.0,1.0,0.0,0.0,0.0,1.0,7.23371922504e-05,0.000889110320713,-0.00357835413888,1.21846967915e-07,0.0,0.0,0.0,1.21846967915e-07,0.0,0.0,0.0,1.21846967915e-07,0.176598474383,0.179794579744,9.78886318207,9e-08,0.0,0.0,0.0,9e-08,0.0,0.0,0.0,9e-08
1560476570080025310,26093,1560476570076803200,base_link,-0.0134107649967,-0.000311438868715,-0.590151394448,-0.807181174985,1.0,0.0,0.0,0.0,1.0,0.0,0.0,0.0,1.0,-0.000846922514029,-0.000484662596136,-0.000580537249334,1.21846967915e-07,0.0,0.0,0.0,1.21846967915e-07,0.0,0.0,0.0,1.21846967915e-07,0.16135045886,0.217951506376,9.81914615631,9e-08,0.0,0.0,0.0,9e-08,0.0,0.0,0.0,9e-08
1560476570099568287,26094,1560476570096803200,base_link,-0.0134180524502,-0.000309108938246,-0.59014420841,-0.807186337974,1.0,0.0,0.0,0.0,1.0,0.0,0.0,0.0,1.0,0.000741657742765,-0.00122718373314,-0.00113646779209,1.21846967915e-07,0.0,0.0,0.0,1.21846967915e-07,0.0,0.0,0.0,1.21846967915e-07,0.139754846692,0.19792714715,9.81027698517,9e-08,0.0,0.0,0.0,9e-08,0.0,0.0,0.0,9e-08
1560476570119979574,26095,1560476570116803200,base_link,-0.0134181196218,-0.000303211013632,-0.590126801762,-0.807199024175,1.0,0.0,0.0,0.0,1.0,0.0,0.0,0.0,1.0,0.00103146838956,0.000248355150688,-0.00326444068924,1.21846967915e-07,0.0,0.0,0.0,1.21846967915e-07,0.0,0.0,0.0,1.21846967915e-07,0.186636671424,0.180636674166,9.790599823,9e-08,0.0,0.0,0.0,9e-08,0.0,0.0,0.0,9e-08
1560476570139196464,26096,1560476570136799104,base_link,-0.013418182842,-0.000301443480173,-0.590118372392,-0.807205177615,1.0,0.0,0.0,0.0,1.0,0.0,0.0,0.0,1.0,0.000118453492178,-0.000893713673577,-0.0014414160978,1.21846967915e-07,0.0,0.0,0.0,1.21846967915e-07,0.0,0.0,0.0,1.21846967915e-07,0.153501048684,0.184379279613,9.80368518829,9e-08,0.0,0.0,0.0,9e-08,0.0,0.0,0.0,9e-08
1560476570159548323,26097,1560476570156799104,base_link,-0.0134234623933,-0.000296399687786,-0.590102504104,-0.807216662631,1.0,0.0,0.0,0.0,1.0,0.0,0.0,0.0,1.0,0.000324194028508,-0.00133652612567,-0.000588321126997,1.21846967915e-07,0.0,0.0,0.0,1.21846967915e-07,0.0,0.0,0.0,1.21846967915e-07,0.158169969916,0.184893772006,9.79721641541,9e-08,0.0,0.0,0.0,9e-08,0.0,0.0,0.0,9e-08
1560476570178784447,26098,1560476570176799104,base_link,-0.0134087768508,-0.000295172160823,-0.590090407958,-0.807225724204,1.0,0.0,0.0,0.0,1.0,0.0,0.0,0.0,1.0,-0.000215833992115,-0.000592764758039,-0.00101300945971,1.21846967915e-07,0.0,0.0,0.0,1.21846967915e-07,0.0,0.0,0.0,1.21846967915e-07,0.157852441072,0.17676615715,9.77803230286,9e-08,0.0,0.0,0.0,9e-08,0.0,0.0,0.0,9e-08
1560476570197678657,26099,1560476570192799104,base_link,-0.0134099220597,-0.00029522418584,-0.590074139275,-0.807237609615,1.0,0.0,0.0,0.0,1.0,0.0,0.0,0.0,1.0,-0.000436290720245,-0.000809194985777,-0.00164317851886,1.21846967915e-07,0.0,0.0,0.0,1.21846967915e-07,0.0,0.0,0.0,1.21846967915e-07,0.176702648401,0.197386711836,9.84254550934,9e-08,0.0,0.0,0.0,9e-08,0.0,0.0,0.0,9e-08
1560476570219528059,26100,1560476570216799104,base_link,-0.0134138054967,-0.000288883060772,-0.590059387878,-0.807248399208,1.0,0.0,0.0,0.0,1.0,0.0,0.0,0.0,1.0,8.73504613992e-05,-0.000701752491295,-0.00196441984735,1.21846967915e-07,0.0,0.0,0.0,1.21846967915e-07,0.0,0.0,0.0,1.21846967915e-07,0.185706108809,0.223088875413,9.77543354034,9e-08,0.0,0.0,0.0,9e-08,0.0,0.0,0.0,9e-08
1560476570239601506,26101,1560476570236797056,base_link,-0.0134141683547,-0.000289982171556,-0.590042581822,-0.807260653404,1.0,0.0,0.0,0.0,1.0,0.0,0.0,0.0,1.0,0.00157229450997,0.000141695432831,-0.00242420029826,1.21846967915e-07,0.0,0.0,0.0,1.21846967915e-07,0.0,0.0,0.0,1.21846967915e-07,0.142732322216,0.177208185196,9.79796981812,9e-08,0.0,0.0,0.0,9e-08,0.0,0.0,0.0,9e-08
1560476570259267251,26102,1560476570256797056,base_link,-0.0134219773755,-0.000293627873952,-0.590028483701,-0.807270874015,1.0,0.0,0.0,0.0,1.0,0.0,0.0,0.0,1.0,0.00147099338938,-0.00123399437871,-0.0025323620066,1.21846967915e-07,0.0,0.0,0.0,1.21846967915e-07,0.0,0.0,0.0,1.21846967915e-07,0.14586879313,0.199282303452,9.7942905426,9e-08,0.0,0.0,0.0,9e-08,0.0,0.0,0.0,9e-08
1560476570280223055,26103,1560476570276797056,base_link,-0.0134291008514,-0.000295672654649,-0.590014638461,-0.807280926038,1.0,0.0,0.0,0.0,1.0,0.0,0.0,0.0,1.0,0.00030921807047,0.000468218990136,-0.00144962198101,1.21846967915e-07,0.0,0.0,0.0,1.21846967915e-07,0.0,0.0,0.0,1.21846967915e-07,0.140582457185,0.18345990777,9.8155670166,9e-08,0.0,0.0,0.0,9e-08,0.0,0.0,0.0,9e-08
1560476570299753889,26104,1560476570296797056,base_link,-0.0134184982848,-0.000297671995776,-0.589997895626,-0.807293285602,1.0,0.0,0.0,0.0,1.0,0.0,0.0,0.0,1.0,-0.00108868349344,-0.000706827035174,-0.00248986040242,1.21846967915e-07,0.0,0.0,0.0,1.21846967915e-07,0.0,0.0,0.0,1.21846967915e-07,0.13241609931,0.169943243265,9.77578735352,9e-08,0.0,0.0,0.0,9e-08,0.0,0.0,0.0,9e-08
1560476570320319126,26105,1560476570316797056,base_link,-0.013429212804,-0.000289332188127,-0.589990404023,-0.807298585568,1.0,0.0,0.0,0.0,1.0,0.0,0.0,0.0,1.0,0.000206392389373,-0.00198057061061,-0.00111622712575,1.21846967915e-07,0.0,0.0,0.0,1.21846967915e-07,0.0,0.0,0.0,1.21846967915e-07,0.125287801027,0.219075500965,9.81238269806,9e-08,0.0,0.0,0.0,9e-08,0.0,0.0,0.0,9e-08
1560476570339412240,26106,1560476570336793472,base_link,-0.0134402756932,-0.00028079547567,-0.589972059608,-0.807311872362,1.0,0.0,0.0,0.0,1.0,0.0,0.0,0.0,1.0,-0.00100013497286,3.44617583323e-05,-0.00291600776836,1.21846967915e-07,0.0,0.0,0.0,1.21846967915e-07,0.0,0.0,0.0,1.21846967915e-07,0.137046173215,0.202389776707,9.82920360565,9e-08,0.0,0.0,0.0,9e-08,0.0,0.0,0.0,9e-08
1560476570359682682,26107,1560476570356793472,base_link,-0.0134343711831,-0.000276451716095,-0.589961164647,-0.807319817043,1.0,0.0,0.0,0.0,1.0,0.0,0.0,0.0,1.0,-0.00149762327783,-6.80839002598e-05,-0.00153019651771,1.21846967915e-07,0.0,0.0,0.0,1.21846967915e-07,0.0,0.0,0.0,1.21846967915e-07,0.153523772955,0.192934602499,9.82363510132,9e-08,0.0,0.0,0.0,9e-08,0.0,0.0,0.0,9e-08
1560476570379170607,26108,1560476570376793472,base_link,-0.0134423020346,-0.000275374995824,-0.589942725401,-0.807333198667,1.0,0.0,0.0,0.0,1.0,0.0,0.0,0.0,1.0,0.0003185600508,4.37573762611e-05,-0.00048994529061,1.21846967915e-07,0.0,0.0,0.0,1.21846967915e-07,0.0,0.0,0.0,1.21846967915e-07,0.133564054966,0.190514698625,9.79422092438,9e-08,0.0,0.0,0.0,9e-08,0.0,0.0,0.0,9e-08
1560476570397690378,26109,1560476570392793472,base_link,-0.0134408110899,-0.00026887647862,-0.58993481233,-0.807339004396,1.0,0.0,0.0,0.0,1.0,0.0,0.0,0.0,1.0,-0.000217874956434,-0.00048788607819,-0.000905797816813,1.21846967915e-07,0.0,0.0,0.0,1.21846967915e-07,0.0,0.0,0.0,1.21846967915e-07,0.153338611126,0.215906500816,9.84289932251,9e-08,0.0,0.0,0.0,9e-08,0.0,0.0,0.0,9e-08
1560476570417574352,26110,1560476570412793472,base_link,-0.0134320781311,-0.000267224190449,-0.589921346412,-0.807349014272,1.0,0.0,0.0,0.0,1.0,0.0,0.0,0.0,1.0,-0.000750458042603,0.0010043377988,-0.000691535649821,1.21846967915e-07,0.0,0.0,0.0,1.21846967915e-07,0.0,0.0,0.0,1.21846967915e-07,0.151364296675,0.187200635672,9.80113601685,9e-08,0.0,0.0,0.0,9e-08,0.0,0.0,0.0,9e-08
1560476570439302280,26111,1560476570436791168,base_link,-0.0134468769433,-0.000268607133916,-0.589898207792,-0.807365577984,1.0,0.0,0.0,0.0,1.0,0.0,0.0,0.0,1.0,0.00136150990147,0.000777674489655,-0.00263535790145,1.21846967915e-07,0.0,0.0,0.0,1.21846967915e-07,0.0,0.0,0.0,1.21846967915e-07,0.139749065042,0.239512741566,9.82283210754,9e-08,0.0,0.0,0.0,9e-08,0.0,0.0,0.0,9e-08
1560476570458696688,26112,1560476570456791168,base_link,-0.0134420379583,-0.000263748392536,-0.589880200551,-0.807378864778,1.0,0.0,0.0,0.0,1.0,0.0,0.0,0.0,1.0,-0.000982390483841,3.70249326807e-05,-0.00228161434643,1.21846967915e-07,0.0,0.0,0.0,1.21846967915e-07,0.0,0.0,0.0,1.21846967915e-07,0.129237145185,0.201353371143,9.78619670868,9e-08,0.0,0.0,0.0,9e-08,0.0,0.0,0.0,9e-08
1560476570479439936,26113,1560476570476791168,base_link,-0.0134433333153,-0.000259153727504,-0.589865101443,-0.807389833495,1.0,0.0,0.0,0.0,1.0,0.0,0.0,0.0,1.0,0.000733478518669,0.00025483238278,-0.00124111259356,1.21846967915e-07,0.0,0.0,0.0,1.21846967915e-07,0.0,0.0,0.0,1.21846967915e-07,0.136989876628,0.19948336482,9.7961139679,9e-08,0.0,0.0,0.0,9e-08,0.0,0.0,0.0,9e-08
1560476570499313872,26114,1560476570496791168,base_link,-0.0134539029547,-0.000252610429272,-0.589851192983,-0.807399864445,1.0,0.0,0.0,0.0,1.0,0.0,0.0,0.0,1.0,0.000932656344958,-0.00187886308413,-0.00229366496205,1.21846967915e-07,0.0,0.0,0.0,1.21846967915e-07,0.0,0.0,0.0,1.21846967915e-07,0.16067263484,0.205353826284,9.82519340515,9e-08,0.0,0.0,0.0,9e-08,0.0,0.0,0.0,9e-08
1560476570519801360,26115,1560476570516791168,base_link,-0.0134576830002,-0.000257239997164,-0.589834323707,-0.807412097568,1.0,0.0,0.0,0.0,1.0,0.0,0.0,0.0,1.0,-0.00056460761698,-7.14718189556e-05,-0.00261102733202,1.21846967915e-07,0.0,0.0,0.0,1.21846967915e-07,0.0,0.0,0.0,1.21846967915e-07,0.1720944345,0.200854182243,9.78450298309,9e-08,0.0,0.0,0.0,9e-08,0.0,0.0,0.0,9e-08
1560476570539498747,26116,1560476570536789376,base_link,-0.013464021491,-0.00025474872329,-0.589823913435,-0.807419641854,1.0,0.0,0.0,0.0,1.0,0.0,0.0,0.0,1.0,0.000834603037219,-0.000379760429496,-0.00145205575973,1.21846967915e-07,0.0,0.0,0.0,1.21846967915e-07,0.0,0.0,0.0,1.21846967915e-07,0.148049622774,0.225053727627,9.7909450531,9e-08,0.0,0.0,0.0,9e-08,0.0,0.0,0.0,9e-08
1560476570560210719,26117,1560476570556789376,base_link,-0.0134621558345,-0.000265191263553,-0.589810858449,-0.807429156505,1.0,0.0,0.0,0.0,1.0,0.0,0.0,0.0,1.0,-2.02257597266e-05,0.00312175415456,-0.00178010202944,1.21846967915e-07,0.0,0.0,0.0,1.21846967915e-07,0.0,0.0,0.0,1.21846967915e-07,0.161319777369,0.174002543092,9.83582115173,9e-08,0.0,0.0,0.0,9e-08,0.0,0.0,0.0,9e-08
1560476570577241869,26118,1560476570572789376,base_link,-0.0134570475047,-0.000265060213196,-0.589804262467,-0.807434150906,1.0,0.0,0.0,0.0,1.0,0.0,0.0,0.0,1.0,0.000416780094383,-0.000702672405168,-0.00112743070349,1.21846967915e-07,0.0,0.0,0.0,1.21846967915e-07,0.0,0.0,0.0,1.21846967915e-07,0.154343530536,0.215522229671,9.77526950836,9e-08,0.0,0.0,0.0,9e-08,0.0,0.0,0.0,9e-08
1560476570601157781,26119,1560476570596789376,base_link,-0.0134542098364,-0.000263984810014,-0.589791260164,-0.807443612874,1.0,0.0,0.0,0.0,1.0,0.0,0.0,0.0,1.0,0.00105722632725,0.00195454945788,-0.000827468233183,1.21846967915e-07,0.0,0.0,0.0,1.21846967915e-07,0.0,0.0,0.0,1.21846967915e-07,0.181479766965,0.19278883934,9.80355930328,9e-08,0.0,0.0,0.0,9e-08,0.0,0.0,0.0,9e-08
1560476570617614358,26120,1560476570612789376,base_link,-0.0134513596558,-0.000270028931509,-0.589778257861,-0.807453243429,1.0,0.0,0.0,0.0,1.0,0.0,0.0,0.0,1.0,0.000502258422785,0.00024766830029,-0.00251471367665,1.21846967915e-07,0.0,0.0,0.0,1.21846967915e-07,0.0,0.0,0.0,1.21846967915e-07,0.163246184587,0.177431285381,9.76379299164,9e-08,0.0,0.0,0.0,9e-08,0.0,0.0,0.0,9e-08
1560476570640964985,26121,1560476570636787328,base_link,-0.0134360465203,-0.000272271275558,-0.589768690527,-0.80746045054,1.0,0.0,0.0,0.0,1.0,0.0,0.0,0.0,1.0,0.00139762891922,-5.63550856896e-05,0.000246269628406,1.21846967915e-07,0.0,0.0,0.0,1.21846967915e-07,0.0,0.0,0.0,1.21846967915e-07,0.144658207893,0.18993768096,9.7985200882,9e-08,0.0,0.0,0.0,9e-08,0.0,0.0,0.0,9e-08
1560476570659775067,26122,1560476570656787328,base_link,-0.0134412760223,-0.000267311776869,-0.589760229547,-0.807466467002,1.0,0.0,0.0,0.0,1.0,0.0,0.0,0.0,1.0,0.000330184673658,0.00100875331555,0.000466397963464,1.21846967915e-07,0.0,0.0,0.0,1.21846967915e-07,0.0,0.0,0.0,1.21846967915e-07,0.204740554094,0.194370225072,9.83887004852,9e-08,0.0,0.0,0.0,9e-08,0.0,0.0,0.0,9e-08
1560476570680484787,26123,1560476570676787328,base_link,-0.0134268025311,-0.000264105982204,-0.589750641139,-0.807473863774,1.0,0.0,0.0,0.0,1.0,0.0,0.0,0.0,1.0,-0.00118472054601,-0.000382785859983,-0.00121153320652,1.21846967915e-07,0.0,0.0,0.0,1.21846967915e-07,0.0,0.0,0.0,1.21846967915e-07,0.180020615458,0.203556895256,9.77972602844,9e-08,0.0,0.0,0.0,9e-08,0.0,0.0,0.0,9e-08
1560476570697621875,26124,1560476570692787328,base_link,-0.0134237646653,-0.000261062848032,-0.589737933864,-0.807483115008,1.0,0.0,0.0,0.0,1.0,0.0,0.0,0.0,1.0,0.000723639852367,0.000463793723611,-0.00176772766281,1.21846967915e-07,0.0,0.0,0.0,1.21846967915e-07,0.0,0.0,0.0,1.21846967915e-07,0.15435552597,0.209937170148,9.81857681274,9e-08,0.0,0.0,0.0,9e-08,0.0,0.0,0.0,9e-08
1560476570717606131,26125,1560476570712787328,base_link,-0.0134268782637,-0.000247752346437,-0.589727808084,-0.807490459096,1.0,0.0,0.0,0.0,1.0,0.0,0.0,0.0,1.0,-0.00129053194541,-0.00101230130531,-0.000766070792452,1.21846967915e-07,0.0,0.0,0.0,1.21846967915e-07,0.0,0.0,0.0,1.21846967915e-07,0.16187800467,0.220695376396,9.79412269592,9e-08,0.0,0.0,0.0,9e-08,0.0,0.0,0.0,9e-08
1560476570740098973,26126,1560476570736788096,base_link,-0.0134189467537,-0.000249604173594,-0.589717808744,-0.807497929625,1.0,0.0,0.0,0.0,1.0,0.0,0.0,0.0,1.0,0.000405997852795,0.00131522817537,-0.00155993096996,1.21846967915e-07,0.0,0.0,0.0,1.21846967915e-07,0.0,0.0,0.0,1.21846967915e-07,0.185261338949,0.15672801435,9.82459259033,9e-08,0.0,0.0,0.0,9e-08,0.0,0.0,0.0,9e-08
1560476570760118130,26127,1560476570756788096,base_link,-0.0134118180094,-0.000251808322062,-0.589703468279,-0.80750839258,1.0,0.0,0.0,0.0,1.0,0.0,0.0,0.0,1.0,0.00113108835649,-0.000707938801497,-0.00294928485528,1.21846967915e-07,0.0,0.0,0.0,1.21846967915e-07,0.0,0.0,0.0,1.21846967915e-07,0.124443240464,0.159791857004,9.80329704285,9e-08,0.0,0.0,0.0,9e-08,0.0,0.0,0.0,9e-08
1560476570779625279,26128,1560476570776788096,base_link,-0.0134181703297,-0.000253211021864,-0.589698653001,-0.807511859158,1.0,0.0,0.0,0.0,1.0,0.0,0.0,0.0,1.0,-0.00201508379541,0.00122168648522,7.00594391674e-05,1.21846967915e-07,0.0,0.0,0.0,1.21846967915e-07,0.0,0.0,0.0,1.21846967915e-07,0.165654778481,0.207326114178,9.78404808044,9e-08,0.0,0.0,0.0,9e-08,0.0,0.0,0.0,9e-08
1560476570799553065,26129,1560476570792788096,base_link,-0.0134053431998,-0.000256988433162,-0.589689032983,-0.807519203247,1.0,0.0,0.0,0.0,1.0,0.0,0.0,0.0,1.0,-0.000145223311847,0.000675737974234,-0.00240019755438,1.21846967915e-07,0.0,0.0,0.0,1.21846967915e-07,0.0,0.0,0.0,1.21846967915e-07,0.146048799157,0.201515331864,9.73835086823,9e-08,0.0,0.0,0.0,9e-08,0.0,0.0,0.0,9e-08
1560476570820355419,26130,1560476570816788096,base_link,-0.0134175269317,-0.000249612076128,-0.589674355343,-0.807529581908,1.0,0.0,0.0,0.0,1.0,0.0,0.0,0.0,1.0,0.000304286222672,0.000146074584336,-0.00112648261711,1.21846967915e-07,0.0,0.0,0.0,1.21846967915e-07,0.0,0.0,0.0,1.21846967915e-07,0.171547502279,0.188688874245,9.85926628113,9e-08,0.0,0.0,0.0,9e-08,0.0,0.0,0.0,9e-08
1560476570839470589,26131,1560476570833786048,base_link,-0.0134150205113,-0.000250564331486,-0.589673248988,-0.807530435382,1.0,0.0,0.0,0.0,1.0,0.0,0.0,0.0,1.0,-0.000738421687856,0.00111340370495,0.000481117051095,1.21846967915e-07,0.0,0.0,0.0,1.21846967915e-07,0.0,0.0,0.0,1.21846967915e-07,0.160949289799,0.244263350964,9.77293777466,9e-08,0.0,0.0,0.0,9e-08,0.0,0.0,0.0,9e-08
1560476570857534472,26132,1560476570853786048,base_link,-0.0134030837335,-0.000254302230114,-0.589658761009,-0.807541298732,1.0,0.0,0.0,0.0,1.0,0.0,0.0,0.0,1.0,0.000404588179663,0.00120542792138,-0.00155876588542,1.21846967915e-07,0.0,0.0,0.0,1.21846967915e-07,0.0,0.0,0.0,1.21846967915e-07,0.131533846259,0.162139743567,9.78728294373,9e-08,0.0,0.0,0.0,9e-08,0.0,0.0,0.0,9e-08
1560476570879691299,26133,1560476570874786048,base_link,-0.0134213451728,-0.000254780333426,-0.589645621729,-0.807550560502,1.0,0.0,0.0,0.0,1.0,0.0,0.0,0.0,1.0,0.00265197758563,-0.000910174683668,-0.000407768995501,1.21846967915e-07,0.0,0.0,0.0,1.21846967915e-07,0.0,0.0,0.0,1.21846967915e-07,0.144224211574,0.199374675751,9.8028755188,9e-08,0.0,0.0,0.0,9e-08,0.0,0.0,0.0,9e-08
1560476570898221874,26134,1560476570894786048,base_link,-0.0134216704937,-0.000263820832432,-0.589630143299,-0.807561908541,1.0,0.0,0.0,0.0,1.0,0.0,0.0,0.0,1.0,-0.000768887111917,0.00205366127193,-0.00197344250046,1.21846967915e-07,0.0,0.0,0.0,1.21846967915e-07,0.0,0.0,0.0,1.21846967915e-07,0.139821752906,0.227941453457,9.80816173553,9e-08,0.0,0.0,0.0,9e-08,0.0,0.0,0.0,9e-08
1560476570919025035,26135,1560476570914786048,base_link,-0.0134090949278,-0.000263362485454,-0.589615697467,-0.80757264545,1.0,0.0,0.0,0.0,1.0,0.0,0.0,0.0,1.0,0.000957232667133,0.000258082698565,0.000143753597513,1.21846967915e-07,0.0,0.0,0.0,1.21846967915e-07,0.0,0.0,0.0,1.21846967915e-07,0.135056555271,0.193904310465,9.76305389404,9e-08,0.0,0.0,0.0,9e-08,0.0,0.0,0.0,9e-08
1560476570938571340,26136,1560476570934781440,base_link,-0.0134250323635,-0.000264441839903,-0.589611092923,-0.807575732707,1.0,0.0,0.0,0.0,1.0,0.0,0.0,0.0,1.0,0.0014782063663,-0.00113113340922,-0.000604199594818,1.21846967915e-07,0.0,0.0,0.0,1.21846967915e-07,0.0,0.0,0.0,1.21846967915e-07,0.149021625519,0.239857241511,9.80474376678,9e-08,0.0,0.0,0.0,9e-08,0.0,0.0,0.0,9e-08
1560476570957417845,26137,1560476570954781440,base_link,-0.0134180649626,-0.000264750038733,-0.589595856838,-0.807586922695,1.0,0.0,0.0,0.0,1.0,0.0,0.0,0.0,1.0,-0.00163259985857,0.00216041924432,-0.00249442039058,1.21846967915e-07,0.0,0.0,0.0,1.21846967915e-07,0.0,0.0,0.0,1.21846967915e-07,0.124631009996,0.217993229628,9.83056640625,9e-08,0.0,0.0,0.0,9e-08,0.0,0.0,0.0,9e-08
1560476570979322735,26138,1560476570974781440,base_link,-0.0134099569626,-0.000262115860701,-0.589580388944,-0.807598428785,1.0,0.0,0.0,0.0,1.0,0.0,0.0,0.0,1.0,-0.000118592281069,0.000582647393458,-0.000174253247678,1.21846967915e-07,0.0,0.0,0.0,1.21846967915e-07,0.0,0.0,0.0,1.21846967915e-07,0.100769042969,0.200623884797,9.81296253204,9e-08,0.0,0.0,0.0,9e-08,0.0,0.0,0.0,9e-08
1560476571001906967,26139,1560476570998781440,base_link,-0.0134294768803,-0.00025751856149,-0.589569578278,-0.807605951997,1.0,0.0,0.0,0.0,1.0,0.0,0.0,0.0,1.0,0.000201973860385,0.000893611111678,-0.00081030477304,1.21846967915e-07,0.0,0.0,0.0,1.21846967915e-07,0.0,0.0,0.0,1.21846967915e-07,0.174430668354,0.232795730233,9.84792804718,9e-08,0.0,0.0,0.0,9e-08,0.0,0.0,0.0,9e-08
1560476571019899330,26140,1560476571014781440,base_link,-0.0134139760597,-0.000263953858422,-0.589554584536,-0.807617152522,1.0,0.0,0.0,0.0,1.0,0.0,0.0,0.0,1.0,-0.000795813975856,0.0025889116805,-0.0029272432439,1.21846967915e-07,0.0,0.0,0.0,1.21846967915e-07,0.0,0.0,0.0,1.21846967915e-07,0.162844836712,0.214019477367,9.8290271759,9e-08,0.0,0.0,0.0,9e-08,0.0,0.0,0.0,9e-08
1560476571037403812,26141,1560476571034779392,base_link,-0.0134100834031,-0.000263625244713,-0.589544553586,-0.807624570368,1.0,0.0,0.0,0.0,1.0,0.0,0.0,0.0,1.0,0.00115618167911,0.000569983036257,-0.000817243242636,1.21846967915e-07,0.0,0.0,0.0,1.21846967915e-07,0.0,0.0,0.0,1.21846967915e-07,0.164891526103,0.194918990135,9.79779052734,9e-08,0.0,0.0,0.0,9e-08,0.0,0.0,0.0,9e-08
1560476571060978476,26142,1560476571058779392,base_link,-0.0134129539986,-0.000256362157334,-0.589534354049,-0.807631903919,1.0,0.0,0.0,0.0,1.0,0.0,0.0,0.0,1.0,-0.000680852797814,0.000449558749096,-0.00281011755578,1.21846967915e-07,0.0,0.0,0.0,1.21846967915e-07,0.0,0.0,0.0,1.21846967915e-07,0.170102536678,0.242098033428,9.83962154388,9e-08,0.0,0.0,0.0,9e-08,0.0,0.0,0.0,9e-08
1560476571077549338,26143,1560476571074779392,base_link,-0.0134071798804,-0.000251430976059,-0.589523553919,-0.807639838064,1.0,0.0,0.0,0.0,1.0,0.0,0.0,0.0,1.0,-0.00108963821549,0.00109815574251,-0.00142814149149,1.21846967915e-07,0.0,0.0,0.0,1.21846967915e-07,0.0,0.0,0.0,1.21846967915e-07,0.151575759053,0.205759331584,9.80746173859,9e-08,0.0,0.0,0.0,9e-08,0.0,0.0,0.0,9e-08
1560476571098413119,26144,1560476571094779392,base_link,-0.0134084146513,-0.000251915006272,-0.5895122691,-0.807648172603,1.0,0.0,0.0,0.0,1.0,0.0,0.0,0.0,1.0,0.000834825448692,-0.000917778350413,-0.000583486747928,1.21846967915e-07,0.0,0.0,0.0,1.21846967915e-07,0.0,0.0,0.0,1.21846967915e-07,0.159958317876,0.197430849075,9.79753684998,9e-08,0.0,0.0,0.0,9e-08,0.0,0.0,0.0,9e-08
1560476571118746296,26145,1560476571114779392,base_link,-0.0134216197858,-0.000251098411082,-0.589502385664,-0.80765510576,1.0,0.0,0.0,0.0,1.0,0.0,0.0,0.0,1.0,0.00337632303126,-0.000183515367098,-0.0022236360237,1.21846967915e-07,0.0,0.0,0.0,1.21846967915e-07,0.0,0.0,0.0,1.21846967915e-07,0.178108051419,0.201044842601,9.79963874817,9e-08,0.0,0.0,0.0,9e-08,0.0,0.0,0.0,9e-08
1560476571138639817,26146,1560476571134777344,base_link,-0.013409156831,-0.000259636440628,-0.58947967905,-0.807671911815,1.0,0.0,0.0,0.0,1.0,0.0,0.0,0.0,1.0,0.000180032118806,0.000665459432639,-0.00207552383654,1.21846967915e-07,0.0,0.0,0.0,1.21846967915e-07,0.0,0.0,0.0,1.21846967915e-07,0.170893743634,0.1899061203,9.75201320648,9e-08,0.0,0.0,0.0,9e-08,0.0,0.0,0.0,9e-08
1560476571157474700,26147,1560476571154777344,base_link,-0.0134213971978,-0.000254729625499,-0.589473715271,-0.807676021133,1.0,0.0,0.0,0.0,1.0,0.0,0.0,0.0,1.0,0.000835098500829,-0.000813834019937,-0.00102131313179,1.21846967915e-07,0.0,0.0,0.0,1.21846967915e-07,0.0,0.0,0.0,1.21846967915e-07,0.171522572637,0.164409086108,9.79835605621,9e-08,0.0,0.0,0.0,9e-08,0.0,0.0,0.0,9e-08
1560476571178469258,26148,1560476571174777344,base_link,-0.0134161795496,-0.000262154714827,-0.589464221693,-0.807683154487,1.0,0.0,0.0,0.0,1.0,0.0,0.0,0.0,1.0,-0.000795120606199,0.00290604564361,-0.00304209720343,1.21846967915e-07,0.0,0.0,0.0,1.21846967915e-07,0.0,0.0,0.0,1.21846967915e-07,0.165479704738,0.202575743198,9.81754970551,9e-08,0.0,0.0,0.0,9e-08,0.0,0.0,0.0,9e-08
1560476571202239869,26149,1560476571198777344,base_link,-0.0134064805061,-0.000264097421125,-0.589447889789,-0.807695187412,1.0,0.0,0.0,0.0,1.0,0.0,0.0,0.0,1.0,0.00103577179834,-0.000817681255285,-0.00176525220741,1.21846967915e-07,0.0,0.0,0.0,1.21846967915e-07,0.0,0.0,0.0,1.21846967915e-07,0.181081920862,0.168661803007,9.80027770996,9e-08,0.0,0.0,0.0,9e-08,0.0,0.0,0.0,9e-08
1560476571218534248,26150,1560476571214777344,base_link,-0.013425498613,-0.000263554121906,-0.589441883863,-0.807699254583,1.0,0.0,0.0,0.0,1.0,0.0,0.0,0.0,1.0,0.00222021178342,-0.0018753237091,-0.000393338967115,1.21846967915e-07,0.0,0.0,0.0,1.21846967915e-07,0.0,0.0,0.0,1.21846967915e-07,0.169508755207,0.187062859535,9.79137420654,9e-08,0.0,0.0,0.0,9e-08,0.0,0.0,0.0,9e-08
1560476571238665323,26151,1560476571234775552,base_link,-0.0134264462585,-0.00025781358943,-0.589434360651,-0.807704670453,1.0,0.0,0.0,0.0,1.0,0.0,0.0,0.0,1.0,-0.00130433693994,3.13888303936e-05,-0.00110603473149,1.21846967915e-07,0.0,0.0,0.0,1.21846967915e-07,0.0,0.0,0.0,1.21846967915e-07,0.191895827651,0.224008649588,9.81122398376,9e-08,0.0,0.0,0.0,9e-08,0.0,0.0,0.0,9e-08
1560476571261670408,26152,1560476571258775552,base_link,-0.0134183422098,-0.000263238679087,-0.589426679388,-0.807710497255,1.0,0.0,0.0,0.0,1.0,0.0,0.0,0.0,1.0,0.00156987993978,-0.000175886903889,-0.00114204804413,1.21846967915e-07,0.0,0.0,0.0,1.21846967915e-07,0.0,0.0,0.0,1.21846967915e-07,0.166736721992,0.176252245903,9.7951335907,9e-08,0.0,0.0,0.0,9e-08,0.0,0.0,0.0,9e-08
1560476571279449157,26153,1560476571274775552,base_link,-0.0134235275893,-0.000263703611509,-0.589419071882,-0.807715828832,1.0,0.0,0.0,0.0,1.0,0.0,0.0,0.0,1.0,0.000812831625808,-0.001026539132,-0.00133219989948,1.21846967915e-07,0.0,0.0,0.0,1.21846967915e-07,0.0,0.0,0.0,1.21846967915e-07,0.157363981009,0.222833678126,9.8070306778,9e-08,0.0,0.0,0.0,9e-08,0.0,0.0,0.0,9e-08
1560476571300826333,26154,1560476571298775552,base_link,-0.0134107307524,-0.000261797783703,-0.58941026319,-0.80772253018,1.0,0.0,0.0,0.0,1.0,0.0,0.0,0.0,1.0,-0.00107821950223,-0.000175035238499,-0.000570185016841,1.21846967915e-07,0.0,0.0,0.0,1.21846967915e-07,0.0,0.0,0.0,1.21846967915e-07,0.143768310547,0.213575005531,9.75020694733,9e-08,0.0,0.0,0.0,9e-08,0.0,0.0,0.0,9e-08
1560476571318883771,26155,1560476571314775552,base_link,-0.013415415638,-0.000264268642697,-0.589402318509,-0.807728198932,1.0,0.0,0.0,0.0,1.0,0.0,0.0,0.0,1.0,0.000385318824556,-0.000815247534774,-0.0011096377857,1.21846967915e-07,0.0,0.0,0.0,1.21846967915e-07,0.0,0.0,0.0,1.21846967915e-07,0.14475376904,0.167723655701,9.81938362122,9e-08,0.0,0.0,0.0,9e-08,0.0,0.0,0.0,9e-08
1560476571338767099,26156,1560476571334773504,base_link,-0.01342235538,-0.000254906773972,-0.589388178242,-0.807738461689,1.0,0.0,0.0,0.0,1.0,0.0,0.0,0.0,1.0,-0.00142448721454,-0.000394886621507,-0.00227311463095,1.21846967915e-07,0.0,0.0,0.0,1.21846967915e-07,0.0,0.0,0.0,1.21846967915e-07,0.16373385489,0.229475215077,9.78701114655,9e-08,0.0,0.0,0.0,9e-08,0.0,0.0,0.0,9e-08
1560476571357704063,26157,1560476571351773504,base_link,-0.013415593445,-0.000269152408769,-0.589375544724,-0.807747723459,1.0,0.0,0.0,0.0,1.0,0.0,0.0,0.0,1.0,0.000970835797489,0.00299440207891,-0.00235181022435,1.21846967915e-07,0.0,0.0,0.0,1.21846967915e-07,0.0,0.0,0.0,1.21846967915e-07,0.164803892374,0.224512755871,9.82041168213,9e-08,0.0,0.0,0.0,9e-08,0.0,0.0,0.0,9e-08
1560476571378990766,26158,1560476571376773504,base_link,-0.0134172681237,-0.000274040784651,-0.589358190759,-0.807760441271,1.0,0.0,0.0,0.0,1.0,0.0,0.0,0.0,1.0,0.002212299034,0.000570541073103,-0.00114906299859,1.21846967915e-07,0.0,0.0,0.0,1.21846967915e-07,0.0,0.0,0.0,1.21846967915e-07,0.122953750193,0.208325326443,9.83741855621,9e-08,0.0,0.0,0.0,9e-08,0.0,0.0,0.0,9e-08
1560476571397775728,26159,1560476571392773504,base_link,-0.0134214360519,-0.000274894916878,-0.589347116675,-0.807768396488,1.0,0.0,0.0,0.0,1.0,0.0,0.0,0.0,1.0,0.0017601941945,-7.90728081483e-05,-0.0020079088863,1.21846967915e-07,0.0,0.0,0.0,1.21846967915e-07,0.0,0.0,0.0,1.21846967915e-07,0.170704990625,0.194441735744,9.78740787506,9e-08,0.0,0.0,0.0,9e-08,0.0,0.0,0.0,9e-08
1560476571419478035,26160,1560476571416773504,base_link,-0.0134148808999,-0.000273485631631,-0.589330700477,-0.807780429414,1.0,0.0,0.0,0.0,1.0,0.0,0.0,0.0,1.0,0.000420383148594,0.000894188531674,0.000361399259418,1.21846967915e-07,0.0,0.0,0.0,1.21846967915e-07,0.0,0.0,0.0,1.21846967915e-07,0.1443554461,0.192901074886,9.79346656799,9e-08,0.0,0.0,0.0,9e-08,0.0,0.0,0.0,9e-08
1560476571439446975,26161,1560476571436771200,base_link,-0.0134240037169,-0.000268091493566,-0.589317698174,-0.807789807087,1.0,0.0,0.0,0.0,1.0,0.0,0.0,0.0,1.0,0.00040027621435,-6.32714363746e-05,-0.000698231626302,1.21846967915e-07,0.0,0.0,0.0,1.21846967915e-07,0.0,0.0,0.0,1.21846967915e-07,0.166470170021,0.195487558842,9.77424430847,9e-08,0.0,0.0,0.0,9e-08,0.0,0.0,0.0,9e-08
1560476571459034230,26162,1560476571456771200,base_link,-0.0134216283469,-0.000268750696619,-0.589308541771,-0.807796603267,1.0,0.0,0.0,0.0,1.0,0.0,0.0,0.0,1.0,-0.000891402713023,0.000126471320982,-0.00217550131492,1.21846967915e-07,0.0,0.0,0.0,1.21846967915e-07,0.0,0.0,0.0,1.21846967915e-07,0.138738483191,0.217162922025,9.80060958862,9e-08,0.0,0.0,0.0,9e-08,0.0,0.0,0.0,9e-08
1560476571479324904,26163,1560476571476771200,base_link,-0.013417449882,-0.000272734232347,-0.589286614873,-0.807812629606,1.0,0.0,0.0,0.0,1.0,0.0,0.0,0.0,1.0,0.00113580049947,-0.000707723200321,-0.00166846835054,1.21846967915e-07,0.0,0.0,0.0,1.21846967915e-07,0.0,0.0,0.0,1.21846967915e-07,0.143209636211,0.218654602766,9.81580257416,9e-08,0.0,0.0,0.0,9e-08,0.0,0.0,0.0,9e-08
1560476571498992559,26164,1560476571496771200,base_link,-0.0134146510678,-0.000276502424022,-0.589282463409,-0.807815685252,1.0,0.0,0.0,0.0,1.0,0.0,0.0,0.0,1.0,-0.000439119234215,0.000251616234891,-0.000368628418073,1.21846967915e-07,0.0,0.0,0.0,1.21846967915e-07,0.0,0.0,0.0,1.21846967915e-07,0.159517914057,0.192121952772,9.82599258423,9e-08,0.0,0.0,0.0,9e-08,0.0,0.0,0.0,9e-08
1560476571519852782,26165,1560476571516771200,base_link,-0.0134166965071,-0.000271749049763,-0.589274202627,-0.807821670105,1.0,0.0,0.0,0.0,1.0,0.0,0.0,0.0,1.0,-0.000349778449163,0.00184153905138,-0.00112822523806,1.21846967915e-07,0.0,0.0,0.0,1.21846967915e-07,0.0,0.0,0.0,1.21846967915e-07,0.139075696468,0.211337685585,9.79883670807,9e-08,0.0,0.0,0.0,9e-08,0.0,0.0,0.0,9e-08
1560476571539276258,26166,1560476571536767360,base_link,-0.0134230251198,-0.000270509668999,-0.589258956004,-0.807832786336,1.0,0.0,0.0,0.0,1.0,0.0,0.0,0.0,1.0,0.00199016043916,-0.000497763569001,-0.00146864098497,1.21846967915e-07,0.0,0.0,0.0,1.21846967915e-07,0.0,0.0,0.0,1.21846967915e-07,0.1531650424,0.207429856062,9.77892494202,9e-08,0.0,0.0,0.0,9e-08,0.0,0.0,0.0,9e-08
1560476571559436826,26167,1560476571556767360,base_link,-0.0134302394749,-0.00027164038992,-0.589253308326,-0.807836663846,1.0,0.0,0.0,0.0,1.0,0.0,0.0,0.0,1.0,0.00317299249582,0.000251691933954,-0.000530218123458,1.21846967915e-07,0.0,0.0,0.0,1.21846967915e-07,0.0,0.0,0.0,1.21846967915e-07,0.133981257677,0.206769749522,9.84168148041,9e-08,0.0,0.0,0.0,9e-08,0.0,0.0,0.0,9e-08
1560476571579406419,26168,1560476571576767360,base_link,-0.0134219964733,-0.00027238256958,-0.589241907604,-0.807845198583,1.0,0.0,0.0,0.0,1.0,0.0,0.0,0.0,1.0,0.000820002926048,0.00269513321109,-0.00136169721372,1.21846967915e-07,0.0,0.0,0.0,1.21846967915e-07,0.0,0.0,0.0,1.21846967915e-07,0.15225559473,0.226926907897,9.78356075287,9e-08,0.0,0.0,0.0,9e-08,0.0,0.0,0.0,9e-08
1560476571597674323,26169,1560476571592767360,base_link,-0.0134228591666,-0.000274433277178,-0.589233151596,-0.807851594367,1.0,0.0,0.0,0.0,1.0,0.0,0.0,0.0,1.0,0.00199885619804,-0.00177505973261,-0.00146215676796,1.21846967915e-07,0.0,0.0,0.0,1.21846967915e-07,0.0,0.0,0.0,1.21846967915e-07,0.137288510799,0.190355747938,9.78804111481,9e-08,0.0,0.0,0.0,9e-08,0.0,0.0,0.0,9e-08
1560476571617719119,26170,1560476571612767360,base_link,-0.0134280623267,-0.000277302555599,-0.589235069278,-0.807850098154,1.0,0.0,0.0,0.0,1.0,0.0,0.0,0.0,1.0,0.000516848871484,-0.00047687542974,0.000360791571438,1.21846967915e-07,0.0,0.0,0.0,1.21846967915e-07,0.0,0.0,0.0,1.21846967915e-07,0.159833297133,0.197707980871,9.76652908325,9e-08,0.0,0.0,0.0,9e-08,0.0,0.0,0.0,9e-08
1560476571637394296,26171,1560476571632765056,base_link,-0.0134265140886,-0.000277434923045,-0.58922935838,-0.807854207472,1.0,0.0,0.0,0.0,1.0,0.0,0.0,0.0,1.0,-0.000452628388302,0.00121152657084,-0.000698935356922,1.21846967915e-07,0.0,0.0,0.0,1.21846967915e-07,0.0,0.0,0.0,1.21846967915e-07,0.16237385571,0.166522338986,9.79471302032,9e-08,0.0,0.0,0.0,9e-08,0.0,0.0,0.0,9e-08
1560476571658833694,26172,1560476571656765056,base_link,-0.0134180024008,-0.000275834001347,-0.589211804217,-0.807867209775,1.0,0.0,0.0,0.0,1.0,0.0,0.0,0.0,1.0,0.000385964376619,-0.00113677640911,-0.0014434941113,1.21846967915e-07,0.0,0.0,0.0,1.21846967915e-07,0.0,0.0,0.0,1.21846967915e-07,0.135469526052,0.188770949841,9.76743888855,9e-08,0.0,0.0,0.0,9e-08,0.0,0.0,0.0,9e-08
1560476571679212222,26173,1560476571676765056,base_link,-0.0134416810272,-0.000276975917523,-0.589202869086,-0.807873278921,1.0,0.0,0.0,0.0,1.0,0.0,0.0,0.0,1.0,0.00317376060411,0.000252094527241,-0.000317207304761,1.21846967915e-07,0.0,0.0,0.0,1.21846967915e-07,0.0,0.0,0.0,1.21846967915e-07,0.180961355567,0.198531299829,9.83044147491,9e-08,0.0,0.0,0.0,9e-08,0.0,0.0,0.0,9e-08
1560476571699020296,26174,1560476571696765056,base_link,-0.0134305233076,-0.000292744765767,-0.589193986637,-0.807879969733,1.0,0.0,0.0,0.0,1.0,0.0,0.0,0.0,1.0,0.000283040601062,0.00215932214633,-0.0019872803241,1.21846967915e-07,0.0,0.0,0.0,1.21846967915e-07,0.0,0.0,0.0,1.21846967915e-07,0.157812908292,0.203356564045,9.74367713928,9e-08,0.0,0.0,0.0,9e-08,0.0,0.0,0.0,9e-08
1560476571717752537,26175,1560476571712765056,base_link,-0.0134305825766,-0.000289770778769,-0.589179593488,-0.807890485372,1.0,0.0,0.0,0.0,1.0,0.0,0.0,0.0,1.0,0.00111897487659,-0.000290600350127,-0.00220257230103,1.21846967915e-07,0.0,0.0,0.0,1.21846967915e-07,0.0,0.0,0.0,1.21846967915e-07,0.167311131954,0.172227412462,9.80850887299,9e-08,0.0,0.0,0.0,9e-08,0.0,0.0,0.0,9e-08
1560476571738587978,26176,1560476571733760704,base_link,-0.0134255756627,-0.000284057905162,-0.589167476269,-0.80789939943,1.0,0.0,0.0,0.0,1.0,0.0,0.0,0.0,1.0,-0.000878284161445,0.0017386265099,-0.000801978632808,1.21846967915e-07,0.0,0.0,0.0,1.21846967915e-07,0.0,0.0,0.0,1.21846967915e-07,0.142770558596,0.215003982186,9.79077720642,9e-08,0.0,0.0,0.0,9e-08,0.0,0.0,0.0,9e-08
1560476571760188290,26177,1560476571753760704,base_link,-0.013415940498,-0.000284474763836,-0.589155812129,-0.807908113291,1.0,0.0,0.0,0.0,1.0,0.0,0.0,0.0,1.0,-0.00109995587263,-7.3822127888e-05,-0.00142887397669,1.21846967915e-07,0.0,0.0,0.0,1.21846967915e-07,0.0,0.0,0.0,1.21846967915e-07,0.144381940365,0.180829390883,9.80508422852,9e-08,0.0,0.0,0.0,9e-08,0.0,0.0,0.0,9e-08
1560476571778859655,26178,1560476571773760704,base_link,-0.0134166523846,-0.000281594948702,-0.589144379796,-0.807916426757,1.0,0.0,0.0,0.0,1.0,0.0,0.0,0.0,1.0,0.000598067417741,-0.000181434355909,-0.00176994595677,1.21846967915e-07,0.0,0.0,0.0,1.21846967915e-07,0.0,0.0,0.0,1.21846967915e-07,0.136153936386,0.217082411051,9.83132171631,9e-08,0.0,0.0,0.0,9e-08,0.0,0.0,0.0,9e-08
1560476571797559331,26179,1560476571793760704,base_link,-0.013417634933,-0.000279474435387,-0.589132504922,-0.807925098471,1.0,0.0,0.0,0.0,1.0,0.0,0.0,0.0,1.0,-0.000779963331297,-0.00103086815216,-0.00132154754829,1.21846967915e-07,0.0,0.0,0.0,1.21846967915e-07,0.0,0.0,0.0,1.21846967915e-07,0.153658077121,0.189453974366,9.82221221924,9e-08,0.0,0.0,0.0,9e-08,0.0,0.0,0.0,9e-08
1560476571817397360,26180,1560476571813760704,base_link,-0.0134010942706,-0.000279788561117,-0.589120577364,-0.80793407575,1.0,0.0,0.0,0.0,1.0,0.0,0.0,0.0,1.0,-0.00258203363046,0.000248242024099,-0.000875988625921,1.21846967915e-07,0.0,0.0,0.0,1.21846967915e-07,0.0,0.0,0.0,1.21846967915e-07,0.130462124944,0.212697282434,9.79742622375,9e-08,0.0,0.0,0.0,9e-08,0.0,0.0,0.0,9e-08
1560476571840580760,26181,1560476571837758912,base_link,-0.0134054004931,-0.000275992052028,-0.589104287607,-0.807945813647,1.0,0.0,0.0,0.0,1.0,0.0,0.0,0.0,1.0,0.00082116771955,-0.000177571579115,-0.000922875013202,1.21846967915e-07,0.0,0.0,0.0,1.21846967915e-07,0.0,0.0,0.0,1.21846967915e-07,0.202137023211,0.206800356507,9.78170490265,9e-08,0.0,0.0,0.0,9e-08,0.0,0.0,0.0,9e-08
1560476571858060530,26182,1560476571853758912,base_link,-0.0134075782998,-0.000269990735927,-0.589099177301,-0.80794949096,1.0,0.0,0.0,0.0,1.0,0.0,0.0,0.0,1.0,-0.0008771258872,-0.000499492860399,-0.000566980568692,1.21846967915e-07,0.0,0.0,0.0,1.21846967915e-07,0.0,0.0,0.0,1.21846967915e-07,0.156879082322,0.177209705114,9.78098964691,9e-08,0.0,0.0,0.0,9e-08,0.0,0.0,0.0,9e-08
1560476571878378401,26183,1560476571873758912,base_link,-0.0134017758642,-0.000268907430212,-0.589089820701,-0.807956403043,1.0,0.0,0.0,0.0,1.0,0.0,0.0,0.0,1.0,0.000167977530509,0.0001382749615,-0.00197976455092,1.21846967915e-07,0.0,0.0,0.0,1.21846967915e-07,0.0,0.0,0.0,1.21846967915e-07,0.113687433302,0.223271921277,9.8289899826,9e-08,0.0,0.0,0.0,9e-08,0.0,0.0,0.0,9e-08
1560476571897141209,26184,1560476571893758912,base_link,-0.0134020182085,-0.000265182702474,-0.589070728179,-0.80797035365,1.0,0.0,0.0,0.0,1.0,0.0,0.0,0.0,1.0,-0.000470625644084,-0.000175344117451,-0.0019495531451,1.21846967915e-07,0.0,0.0,0.0,1.21846967915e-07,0.0,0.0,0.0,1.21846967915e-07,0.13442030549,0.202924534678,9.79578018188,9e-08,0.0,0.0,0.0,9e-08,0.0,0.0,0.0,9e-08
1560476571918693644,26185,1560476571913758912,base_link,-0.0134059424753,-0.000256179740506,-0.589058473983,-0.807979236098,1.0,0.0,0.0,0.0,1.0,0.0,0.0,0.0,1.0,0.000179756360012,-0.000178606336704,-0.000801049754955,1.21846967915e-07,0.0,0.0,0.0,1.21846967915e-07,0.0,0.0,0.0,1.21846967915e-07,0.164359360933,0.189013361931,9.78804111481,9e-08,0.0,0.0,0.0,9e-08,0.0,0.0,0.0,9e-08
1560476571937097677,26186,1560476571933753536,base_link,-0.0133964818249,-0.000258802064737,-0.589041235921,-0.807992006593,1.0,0.0,0.0,0.0,1.0,0.0,0.0,0.0,1.0,0.00133054913022,0.000351122580469,-0.00230819662102,1.21846967915e-07,0.0,0.0,0.0,1.21846967915e-07,0.0,0.0,0.0,1.21846967915e-07,0.134038895369,0.202332258224,9.80505275726,9e-08,0.0,0.0,0.0,9e-08,0.0,0.0,0.0,9e-08
1560476571957031005,26187,1560476571953753536,base_link,-0.013401899012,-0.000257411218736,-0.589032606354,-0.807998191643,1.0,0.0,0.0,0.0,1.0,0.0,0.0,0.0,1.0,0.000589804956689,0.000250852521276,-0.00133035052568,1.21846967915e-07,0.0,0.0,0.0,1.21846967915e-07,0.0,0.0,0.0,1.21846967915e-07,0.174273774028,0.203673899174,9.8073682785,9e-08,0.0,0.0,0.0,9e-08,0.0,0.0,0.0,9e-08
1560476571978396850,26188,1560476571973753536,base_link,-0.0133875664493,-0.000255041775596,-0.589023650149,-0.808004871919,1.0,0.0,0.0,0.0,1.0,0.0,0.0,0.0,1.0,-0.00142837769818,0.00322214420885,-0.00196537189186,1.21846967915e-07,0.0,0.0,0.0,1.21846967915e-07,0.0,0.0,0.0,1.21846967915e-07,0.146564438939,0.227188676596,9.81332206726,9e-08,0.0,0.0,0.0,9e-08,0.0,0.0,0.0,9e-08
1560476571997625457,26189,1560476571993753536,base_link,-0.013379165397,-0.000249739833762,-0.589008951436,-0.808015861709,1.0,0.0,0.0,0.0,1.0,0.0,0.0,0.0,1.0,0.000380449724616,0.000138820483699,-0.00176702067256,1.21846967915e-07,0.0,0.0,0.0,1.21846967915e-07,0.0,0.0,0.0,1.21846967915e-07,0.152520850301,0.187777280807,9.83214473724,9e-08,0.0,0.0,0.0,9e-08,0.0,0.0,0.0,9e-08
1560476572016876300,26190,1560476572013753536,base_link,-0.0133875776446,-0.000248902165148,-0.589005990619,-0.808017811001,1.0,0.0,0.0,0.0,1.0,0.0,0.0,0.0,1.0,0.000932941562496,-7.80013797339e-05,3.995699808e-05,1.21846967915e-07,0.0,0.0,0.0,1.21846967915e-07,0.0,0.0,0.0,1.21846967915e-07,0.148455634713,0.262588471174,9.80625724792,9e-08,0.0,0.0,0.0,9e-08,0.0,0.0,0.0,9e-08
1560476572040636603,26191,1560476572037751488,base_link,-0.01337730896,-0.000250583429277,-0.588988162502,-0.808030918671,1.0,0.0,0.0,0.0,1.0,0.0,0.0,0.0,1.0,-0.000787541328464,0.00109842838719,-0.00143349776044,1.21846967915e-07,0.0,0.0,0.0,1.21846967915e-07,0.0,0.0,0.0,1.21846967915e-07,0.141145259142,0.217582136393,9.79848384857,9e-08,0.0,0.0,0.0,9e-08,0.0,0.0,0.0,9e-08
1560476572058507250,26192,1560476572053751488,base_link,-0.0133769019795,-0.000242557088814,-0.588976624803,-0.808039337504,1.0,0.0,0.0,0.0,1.0,0.0,0.0,0.0,1.0,0.000698281219229,-0.000822388916276,-0.00186976639088,1.21846967915e-07,0.0,0.0,0.0,1.21846967915e-07,0.0,0.0,0.0,1.21846967915e-07,0.154988497496,0.183355301619,9.80052947998,9e-08,0.0,0.0,0.0,9e-08,0.0,0.0,0.0,9e-08
1560476572080532818,26193,1560476572077751488,base_link,-0.0133837547937,-0.000239809641126,-0.588961051542,-0.808050611786,1.0,0.0,0.0,0.0,1.0,0.0,0.0,0.0,1.0,-0.00122851214837,0.000562008353882,-0.00238075340167,1.21846967915e-07,0.0,0.0,0.0,1.21846967915e-07,0.0,0.0,0.0,1.21846967915e-07,0.179359421134,0.210009604692,9.80568504333,9e-08,0.0,0.0,0.0,9e-08,0.0,0.0,0.0,9e-08
1560476572101736544,26194,1560476572098751488,base_link,-0.0133740735309,-0.000234117840944,-0.588949029154,-0.808059599601,1.0,0.0,0.0,0.0,1.0,0.0,0.0,0.0,1.0,6.66279083816e-05,-0.00199346756563,-0.00153584615327,1.21846967915e-07,0.0,0.0,0.0,1.21846967915e-07,0.0,0.0,0.0,1.21846967915e-07,0.146230250597,0.174414992332,9.82317638397,9e-08,0.0,0.0,0.0,9e-08,0.0,0.0,0.0,9e-08
1560476572119918224,26195,1560476572114751488,base_link,-0.0133898911114,-0.000232344380584,-0.588940241536,-0.808065689821,1.0,0.0,0.0,0.0,1.0,0.0,0.0,0.0,1.0,0.0028381398879,-0.000817041029222,-0.000729618826881,1.21846967915e-07,0.0,0.0,0.0,1.21846967915e-07,0.0,0.0,0.0,1.21846967915e-07,0.140928670764,0.208615750074,9.82317733765,9e-08,0.0,0.0,0.0,9e-08,0.0,0.0,0.0,9e-08
1560476572137868906,26196,1560476572134749440,base_link,-0.0133908413911,-0.000230137597938,-0.58893048454,-0.808072749418,1.0,0.0,0.0,0.0,1.0,0.0,0.0,0.0,1.0,-0.000893890741281,0.000666593550704,-0.00142965419218,1.21846967915e-07,0.0,0.0,0.0,1.21846967915e-07,0.0,0.0,0.0,1.21846967915e-07,0.183383643627,0.218416392803,9.78358459473,9e-08,0.0,0.0,0.0,9e-08,0.0,0.0,0.0,9e-08
1560476572157511388,26197,1560476572154749440,base_link,-0.0133790185416,-0.000232680238283,-0.588914637325,-0.808084466242,1.0,0.0,0.0,0.0,1.0,0.0,0.0,0.0,1.0,0.000155742352945,-0.000613134703599,-0.00250163162127,1.21846967915e-07,0.0,0.0,0.0,1.21846967915e-07,0.0,0.0,0.0,1.21846967915e-07,0.137724459171,0.201840668917,9.79085254669,9e-08,0.0,0.0,0.0,9e-08,0.0,0.0,0.0,9e-08
1560476572178441808,26198,1560476572174749440,base_link,-0.0133931950292,-0.000229334173638,-0.588907451288,-0.808089460644,1.0,0.0,0.0,0.0,1.0,0.0,0.0,0.0,1.0,0.00177812273614,-0.00166749639902,-0.000495639396831,1.21846967915e-07,0.0,0.0,0.0,1.21846967915e-07,0.0,0.0,0.0,1.21846967915e-07,0.140801638365,0.198293447495,9.84423923492,9e-08,0.0,0.0,0.0,9e-08,0.0,0.0,0.0,9e-08
1560476572199476409,26199,1560476572194749440,base_link,-0.0133866036572,-0.000231701641144,-0.588897262287,-0.808096952246,1.0,0.0,0.0,0.0,1.0,0.0,0.0,0.0,1.0,-0.000920599442907,0.000446775229648,-0.00334354420193,1.21846967915e-07,0.0,0.0,0.0,1.21846967915e-07,0.0,0.0,0.0,1.21846967915e-07,0.160910844803,0.200703218579,9.85048103333,9e-08,0.0,0.0,0.0,9e-08,0.0,0.0,0.0,9e-08
1560476572219875963,26200,1560476572214749440,base_link,-0.0133879299659,-0.000232962095332,-0.588885387412,-0.80810562396,1.0,0.0,0.0,0.0,1.0,0.0,0.0,0.0,1.0,-0.000359548634151,-0.00124556641094,-0.00111390848178,1.21846967915e-07,0.0,0.0,0.0,1.21846967915e-07,0.0,0.0,0.0,1.21846967915e-07,0.145945563912,0.205622285604,9.80300140381,9e-08,0.0,0.0,0.0,9e-08,0.0,0.0,0.0,9e-08
1560476572238157689,26201,1560476572234747392,base_link,-0.0133846504142,-0.000235858374078,-0.588881204338,-0.80810879551,1.0,0.0,0.0,0.0,1.0,0.0,0.0,0.0,1.0,-0.0007952748565,0.00119890505448,-0.00185324426275,1.21846967915e-07,0.0,0.0,0.0,1.21846967915e-07,0.0,0.0,0.0,1.21846967915e-07,0.156720161438,0.193780437112,9.82204437256,9e-08,0.0,0.0,0.0,9e-08,0.0,0.0,0.0,9e-08
1560476572258050845,26202,1560476572254747392,base_link,-0.0133787439285,-0.000235799763617,-0.588872806578,-0.80811491734,1.0,0.0,0.0,0.0,1.0,0.0,0.0,0.0,1.0,-0.00056061137002,0.000462480471469,-0.000155221554451,1.21846967915e-07,0.0,0.0,0.0,1.21846967915e-07,0.0,0.0,0.0,1.21846967915e-07,0.158095061779,0.19601097703,9.79134559631,9e-08,0.0,0.0,0.0,9e-08,0.0,0.0,0.0,9e-08
1560476572277551028,26203,1560476572274747392,base_link,-0.0133721696787,-0.000227650275331,-0.5888654941,-0.808120459651,1.0,0.0,0.0,0.0,1.0,0.0,0.0,0.0,1.0,-0.00044889684068,-0.00145313423127,0.000279956730083,1.21846967915e-07,0.0,0.0,0.0,1.21846967915e-07,0.0,0.0,0.0,1.21846967915e-07,0.156216725707,0.189366519451,9.79263973236,9e-08,0.0,0.0,0.0,9e-08,0.0,0.0,0.0,9e-08
1560476572298283657,26204,1560476572294747392,base_link,-0.0133759240409,-0.000229186659668,-0.588852639311,-0.808129689811,1.0,0.0,0.0,0.0,1.0,0.0,0.0,0.0,1.0,0.000988000771031,-0.000729318708181,-0.00357482256368,1.21846967915e-07,0.0,0.0,0.0,1.21846967915e-07,0.0,0.0,0.0,1.21846967915e-07,0.168923541903,0.212287634611,9.81949520111,9e-08,0.0,0.0,0.0,9e-08,0.0,0.0,0.0,9e-08
1560476572320054958,26205,1560476572314747392,base_link,-0.0133649882508,-0.000235866935157,-0.588834790121,-0.808142987141,1.0,0.0,0.0,0.0,1.0,0.0,0.0,0.0,1.0,0.000364456529496,0.00130144669674,-0.00251076300628,1.21846967915e-07,0.0,0.0,0.0,1.21846967915e-07,0.0,0.0,0.0,1.21846967915e-07,0.140583902597,0.209024369717,9.7288274765,9e-08,0.0,0.0,0.0,9e-08,0.0,0.0,0.0,9e-08
1560476572337884285,26206,1560476572334745344,base_link,-0.0133693405715,-0.000238350306497,-0.588828594534,-0.80814741256,1.0,0.0,0.0,0.0,1.0,0.0,0.0,0.0,1.0,0.00113814487122,-0.000286015856545,-0.000384516199119,1.21846967915e-07,0.0,0.0,0.0,1.21846967915e-07,0.0,0.0,0.0,1.21846967915e-07,0.15545091033,0.176143348217,9.81180858612,9e-08,0.0,0.0,0.0,9e-08,0.0,0.0,0.0,9e-08
1560476572357439536,26207,1560476572354745344,base_link,-0.0133660695809,-0.000232117182729,-0.588817994602,-0.808155146507,1.0,0.0,0.0,0.0,1.0,0.0,0.0,0.0,1.0,-0.00239072809927,-0.000292184267892,-0.001508804271,1.21846967915e-07,0.0,0.0,0.0,1.21846967915e-07,0.0,0.0,0.0,1.21846967915e-07,0.176902353764,0.219357192516,9.80328845978,9e-08,0.0,0.0,0.0,9e-08,0.0,0.0,0.0,9e-08
1560476572378578723,26208,1560476572374745344,base_link,-0.0133646411979,-0.00023230881918,-0.588803401255,-0.808165862343,1.0,0.0,0.0,0.0,1.0,0.0,0.0,0.0,1.0,-0.00121336313896,0.000137344977702,-0.0011032524053,1.21846967915e-07,0.0,0.0,0.0,1.21846967915e-07,0.0,0.0,0.0,1.21846967915e-07,0.149578645825,0.230233639479,9.79608345032,9e-08,0.0,0.0,0.0,9e-08,0.0,0.0,0.0,9e-08
1560476572402337246,26209,1560476572398745344,base_link,-0.0133734986215,-0.0002209989758,-0.588783665994,-0.808180118515,1.0,0.0,0.0,0.0,1.0,0.0,0.0,0.0,1.0,0.000589571311139,-0.00157248228788,-0.00175048515666,1.21846967915e-07,0.0,0.0,0.0,1.21846967915e-07,0.0,0.0,0.0,1.21846967915e-07,0.186100184917,0.168342754245,9.79064846039,9e-08,0.0,0.0,0.0,9e-08,0.0,0.0,0.0,9e-08
1560476572418709173,26210,1560476572414745344,base_link,-0.0133695868671,-0.000220478725639,-0.588777818118,-0.808184449103,1.0,0.0,0.0,0.0,1.0,0.0,0.0,0.0,1.0,-0.00110440887511,0.000675291579682,-0.00110546732321,1.21846967915e-07,0.0,0.0,0.0,1.21846967915e-07,0.0,0.0,0.0,1.21846967915e-07,0.142341330647,0.231261700392,9.7964925766,9e-08,0.0,0.0,0.0,9e-08,0.0,0.0,0.0,9e-08
1560476572441442180,26211,1560476572438743296,base_link,-0.0133687004662,-0.000222114550197,-0.58876121226,-0.808196418808,1.0,0.0,0.0,0.0,1.0,0.0,0.0,0.0,1.0,0.000683155958541,0.00076977815479,-0.00251212483272,1.21846967915e-07,0.0,0.0,0.0,1.21846967915e-07,0.0,0.0,0.0,1.21846967915e-07,0.103617705405,0.204696983099,9.81844043732,9e-08,0.0,0.0,0.0,9e-08,0.0,0.0,0.0,9e-08
1560476572458163649,26212,1560476572454743296,base_link,-0.0133709500543,-0.000220061208421,-0.588755353848,-0.80820067564,1.0,0.0,0.0,0.0,1.0,0.0,0.0,0.0,1.0,0.000378382130293,-0.000822243164293,-0.0014330012491,1.21846967915e-07,0.0,0.0,0.0,1.21846967915e-07,0.0,0.0,0.0,1.21846967915e-07,0.153700530529,0.203653931618,9.81524181366,9e-08,0.0,0.0,0.0,9e-08,0.0,0.0,0.0,9e-08
1560476572477437485,26213,1560476572474743296,base_link,-0.0133650409344,-0.000215965720126,-0.588742151348,-0.808210506393,1.0,0.0,0.0,0.0,1.0,0.0,0.0,0.0,1.0,-0.00144666328561,0.000236721214605,-0.00248128850944,1.21846967915e-07,0.0,0.0,0.0,1.21846967915e-07,0.0,0.0,0.0,1.21846967915e-07,0.153166234493,0.199315860868,9.77946472168,9e-08,0.0,0.0,0.0,9e-08,0.0,0.0,0.0,9e-08
1560476572500946738,26214,1560476572498743296,base_link,-0.0133647142963,-0.000216563678539,-0.588737346607,-0.80821387814,1.0,0.0,0.0,0.0,1.0,0.0,0.0,0.0,1.0,0.00135507411323,-0.00155377388,4.82900068164e-05,1.21846967915e-07,0.0,0.0,0.0,1.21846967915e-07,0.0,0.0,0.0,1.21846967915e-07,0.14655983448,0.214021861553,9.78231334686,9e-08,0.0,0.0,0.0,9e-08,0.0,0.0,0.0,9e-08
1560476572518888173,26215,1560476572514743296,base_link,-0.0133761565072,-0.000223547543046,-0.588732552403,-0.808217323645,1.0,0.0,0.0,0.0,1.0,0.0,0.0,0.0,1.0,0.00271339481696,-0.000614032614976,-0.00168240326457,1.21846967915e-07,0.0,0.0,0.0,1.21846967915e-07,0.0,0.0,0.0,1.21846967915e-07,0.13751925528,0.240574270487,9.85296916962,9e-08,0.0,0.0,0.0,9e-08,0.0,0.0,0.0,9e-08
1560476572538616158,26216,1560476572534741248,base_link,-0.0133733899617,-0.000225494859156,-0.588717706176,-0.808228039482,1.0,0.0,0.0,0.0,1.0,0.0,0.0,0.0,1.0,-4.65805787826e-05,0.00193568738177,-0.00176744651981,1.21846967915e-07,0.0,0.0,0.0,1.21846967915e-07,0.0,0.0,0.0,1.21846967915e-07,0.156422182918,0.227013170719,9.81746864319,9e-08,0.0,0.0,0.0,9e-08,0.0,0.0,0.0,9e-08
1560476572557622071,26217,1560476572554741248,base_link,-0.0133743995104,-0.000222239673653,-0.588707032486,-0.808235847185,1.0,0.0,0.0,0.0,1.0,0.0,0.0,0.0,1.0,-0.000471571896924,-0.00113913195673,-0.00163256679662,1.21846967915e-07,0.0,0.0,0.0,1.21846967915e-07,0.0,0.0,0.0,1.21846967915e-07,0.149883374572,0.216236054897,9.85214996338,9e-08,0.0,0.0,0.0,9e-08,0.0,0.0,0.0,9e-08
1560476572579282241,26218,1560476572575741248,base_link,-0.0133757067213,-0.000207922257505,-0.588695336736,-0.808244339775,1.0,0.0,0.0,0.0,1.0,0.0,0.0,0.0,1.0,-0.000773738429416,-0.000292838347377,-0.000886245048605,1.21846967915e-07,0.0,0.0,0.0,1.21846967915e-07,0.0,0.0,0.0,1.21846967915e-07,0.112253494561,0.178627103567,9.84300327301,9e-08,0.0,0.0,0.0,9e-08,0.0,0.0,0.0,9e-08
1560476572598363848,26219,1560476572595741248,base_link,-0.0133689059321,-0.000204050674343,-0.588688224455,-0.808249681888,1.0,0.0,0.0,0.0,1.0,0.0,0.0,0.0,1.0,0.000471941544674,0.00055733404588,-0.0020828533452,1.21846967915e-07,0.0,0.0,0.0,1.21846967915e-07,0.0,0.0,0.0,1.21846967915e-07,0.143573820591,0.198473751545,9.80871295929,9e-08,0.0,0.0,0.0,9e-08,0.0,0.0,0.0,9e-08
1560476572618867588,26220,1560476572615741248,base_link,-0.0133702282895,-0.000200593315676,-0.588675748988,-0.808258701314,1.0,0.0,0.0,0.0,1.0,0.0,0.0,0.0,1.0,0.001028393046,-0.00123954901937,-0.000270230229944,1.21846967915e-07,0.0,0.0,0.0,1.21846967915e-07,0.0,0.0,0.0,1.21846967915e-07,0.151511847973,0.200456634164,9.82534503937,9e-08,0.0,0.0,0.0,9e-08,0.0,0.0,0.0,9e-08
1560476572638388129,26221,1560476572635738944,base_link,-0.0133741064581,-0.00019736842322,-0.588668721001,-0.808263790546,1.0,0.0,0.0,0.0,1.0,0.0,0.0,0.0,1.0,-0.000697418465279,0.000452308857348,-0.00196343148127,1.21846967915e-07,0.0,0.0,0.0,1.21846967915e-07,0.0,0.0,0.0,1.21846967915e-07,0.137128219008,0.212789639831,9.82773208618,9e-08,0.0,0.0,0.0,9e-08,0.0,0.0,0.0,9e-08
1560476572658522852,26222,1560476572655738944,base_link,-0.0133618891404,-0.000199527132118,-0.588660133581,-0.80827018633,1.0,0.0,0.0,0.0,1.0,0.0,0.0,0.0,1.0,-0.000234949344303,0.00152425735723,0.000154472887516,1.21846967915e-07,0.0,0.0,0.0,1.21846967915e-07,0.0,0.0,0.0,1.21846967915e-07,0.178439125419,0.225630313158,9.78967666626,9e-08,0.0,0.0,0.0,9e-08,0.0,0.0,0.0,9e-08
1560476572678240307,26223,1560476572675738944,base_link,-0.0133599964835,-0.000197646329003,-0.588649533648,-0.808277920277,1.0,0.0,0.0,0.0,1.0,0.0,0.0,0.0,1.0,0.000788361416198,-8.12448270153e-05,-0.00219339574687,1.21846967915e-07,0.0,0.0,0.0,1.21846967915e-07,0.0,0.0,0.0,1.21846967915e-07,0.175750464201,0.155895620584,9.86036109924,9e-08,0.0,0.0,0.0,9e-08,0.0,0.0,0.0,9e-08
1560476572698263799,26224,1560476572695738944,base_link,-0.0133535974065,-0.000200887026527,-0.588642589955,-0.808283093802,1.0,0.0,0.0,0.0,1.0,0.0,0.0,0.0,1.0,0.000357878656359,0.000987047678791,-0.00218855845742,1.21846967915e-07,0.0,0.0,0.0,1.21846967915e-07,0.0,0.0,0.0,1.21846967915e-07,0.159643292427,0.22421079874,9.83003044128,9e-08,0.0,0.0,0.0,9e-08,0.0,0.0,0.0,9e-08
1560476572718738286,26225,1560476572715738944,base_link,-0.0133370080118,-0.000194998980081,-0.588626753276,-0.808294884383,1.0,0.0,0.0,0.0,1.0,0.0,0.0,0.0,1.0,-0.00092253240291,0.00183484284207,-0.0025988726411,1.21846967915e-07,0.0,0.0,0.0,1.21846967915e-07,0.0,0.0,0.0,1.21846967915e-07,0.148483157158,0.193534463644,9.7787322998,9e-08,0.0,0.0,0.0,9e-08,0.0,0.0,0.0,9e-08
1560476572738708520,26226,1560476572735736896,base_link,-0.0133442144643,-0.000197428350771,-0.588611822755,-0.808305684513,1.0,0.0,0.0,0.0,1.0,0.0,0.0,0.0,1.0,0.000895636796486,0.000331003218889,-0.0018751306925,1.21846967915e-07,0.0,0.0,0.0,1.21846967915e-07,0.0,0.0,0.0,1.21846967915e-07,0.185767322779,0.180230557919,9.80854797363,9e-08,0.0,0.0,0.0,9e-08,0.0,0.0,0.0,9e-08
1560476572758630818,26227,1560476572755736896,base_link,-0.0133422803191,-0.0002006084622,-0.588601117456,-0.808313523827,1.0,0.0,0.0,0.0,1.0,0.0,0.0,0.0,1.0,0.00154129369184,-0.000182020303328,-0.00154615705833,1.21846967915e-07,0.0,0.0,0.0,1.21846967915e-07,0.0,0.0,0.0,1.21846967915e-07,0.152049317956,0.207590550184,9.78315162659,9e-08,0.0,0.0,0.0,9e-08,0.0,0.0,0.0,9e-08
1560476572778997131,26228,1560476572775736896,base_link,-0.0133363356379,-0.00019875465941,-0.588586123715,-0.808324471471,1.0,0.0,0.0,0.0,1.0,0.0,0.0,0.0,1.0,-0.000280262407614,-0.00136595033109,-0.00195905356668,1.21846967915e-07,0.0,0.0,0.0,1.21846967915e-07,0.0,0.0,0.0,1.21846967915e-07,0.145508766174,0.186673671007,9.78020572662,9e-08,0.0,0.0,0.0,9e-08,0.0,0.0,0.0,9e-08
1560476572798138842,26229,1560476572795736896,base_link,-0.0133413952353,-0.000201427691568,-0.588578115813,-0.808330287736,1.0,0.0,0.0,0.0,1.0,0.0,0.0,0.0,1.0,0.00141620065551,0.000232925201999,-0.00230256351642,1.21846967915e-07,0.0,0.0,0.0,1.21846967915e-07,0.0,0.0,0.0,1.21846967915e-07,0.138099640608,0.188564896584,9.82640743256,9e-08,0.0,0.0,0.0,9e-08,0.0,0.0,0.0,9e-08
1560476572819514776,26230,1560476572815736896,base_link,-0.0133439174608,-0.000194610438821,-0.588570171132,-0.808336040781,1.0,0.0,0.0,0.0,1.0,0.0,0.0,0.0,1.0,0.000148273116793,-0.000824854709208,-0.00238781259395,1.21846967915e-07,0.0,0.0,0.0,1.21846967915e-07,0.0,0.0,0.0,1.21846967915e-07,0.154986858368,0.17782458663,9.81017780304,9e-08,0.0,0.0,0.0,9e-08,0.0,0.0,0.0,9e-08
1560476572838605549,26231,1560476572835734848,base_link,-0.0133360076827,-0.00019467168346,-0.588556241599,-0.808346261392,1.0,0.0,0.0,0.0,1.0,0.0,0.0,0.0,1.0,0.000469985243399,-0.000620834645815,-0.00185856502503,1.21846967915e-07,0.0,0.0,0.0,1.21846967915e-07,0.0,0.0,0.0,1.21846967915e-07,0.121800675988,0.158420339227,9.77813625336,9e-08,0.0,0.0,0.0,9e-08,0.0,0.0,0.0,9e-08
1560476572858848172,26232,1560476572855734848,base_link,-0.0133460979016,-0.000191518572356,-0.588551531689,-0.808349538309,1.0,0.0,0.0,0.0,1.0,0.0,0.0,0.0,1.0,0.000271061930107,-0.001355967368,-0.000789587618783,1.21846967915e-07,0.0,0.0,0.0,1.21846967915e-07,0.0,0.0,0.0,1.21846967915e-07,0.16429284215,0.231028318405,9.79643440247,9e-08,0.0,0.0,0.0,9e-08,0.0,0.0,0.0,9e-08
1560476572878445449,26233,1560476572875734848,base_link,-0.0133402440995,-0.000186788247155,-0.588545504689,-0.808354048022,1.0,0.0,0.0,0.0,1.0,0.0,0.0,0.0,1.0,-0.00100652058609,0.00120145140681,-0.00089172006119,1.21846967915e-07,0.0,0.0,0.0,1.21846967915e-07,0.0,0.0,0.0,1.21846967915e-07,0.139898359776,0.202996104956,9.78892993927,9e-08,0.0,0.0,0.0,9e-08,0.0,0.0,0.0,9e-08
1560476572898474489,26234,1560476572895734848,base_link,-0.0133332957964,-0.000191832039542,-0.588534978514,-0.808361792505,1.0,0.0,0.0,0.0,1.0,0.0,0.0,0.0,1.0,0.000794384512119,-0.00124924571719,-0.00143563572783,1.21846967915e-07,0.0,0.0,0.0,1.21846967915e-07,0.0,0.0,0.0,1.21846967915e-07,0.165989667177,0.186004623771,9.81646251678,9e-08,0.0,0.0,0.0,9e-08,0.0,0.0,0.0,9e-08
1560476572918403482,26235,1560476572915734848,base_link,-0.0133418377772,-0.00020198613731,-0.588530911343,-0.808364595271,1.0,0.0,0.0,0.0,1.0,0.0,0.0,0.0,1.0,-0.000813951250166,0.000768768892158,-0.0022758198902,1.21846967915e-07,0.0,0.0,0.0,1.21846967915e-07,0.0,0.0,0.0,1.21846967915e-07,0.160285338759,0.209438815713,9.74468994141,9e-08,0.0,0.0,0.0,9e-08,0.0,0.0,0.0,9e-08
1560476572938855803,26236,1560476572935732800,base_link,-0.0133404759072,-0.00019533483778,-0.588517571865,-0.808374310119,1.0,0.0,0.0,0.0,1.0,0.0,0.0,0.0,1.0,0.000468254613224,0.000875801546499,-0.00207701069303,1.21846967915e-07,0.0,0.0,0.0,1.21846967915e-07,0.0,0.0,0.0,1.21846967915e-07,0.171328902245,0.209113165736,9.85745811462,9e-08,0.0,0.0,0.0,9e-08,0.0,0.0,0.0,9e-08
1560476572958390296,26237,1560476572955732800,base_link,-0.013335191746,-0.000196621633748,-0.588504864591,-0.808383645646,1.0,0.0,0.0,0.0,1.0,0.0,0.0,0.0,1.0,0.00090764235938,-0.000824737595394,-0.000909849652089,1.21846967915e-07,0.0,0.0,0.0,1.21846967915e-07,0.0,0.0,0.0,1.21846967915e-07,0.150871992111,0.19845482707,9.82593345642,9e-08,0.0,0.0,0.0,9e-08,0.0,0.0,0.0,9e-08
1560476572979297894,26238,1560476572975732800,base_link,-0.013359427501,-0.000194339118484,-0.588495054912,-0.808390505046,1.0,0.0,0.0,0.0,1.0,0.0,0.0,0.0,1.0,0.0016330704093,-0.00157041533384,-0.00218781433068,1.21846967915e-07,0.0,0.0,0.0,1.21846967915e-07,0.0,0.0,0.0,1.21846967915e-07,0.153571307659,0.231335073709,9.84616851807,9e-08,0.0,0.0,0.0,9e-08,0.0,0.0,0.0,9e-08
1560476572998291137,26239,1560476572995732800,base_link,-0.0133536889442,-0.000204493874797,-0.58848073552,-0.808400946928,1.0,0.0,0.0,0.0,1.0,0.0,0.0,0.0,1.0,0.000676496245433,-0.000616244215053,-0.00207488937303,1.21846967915e-07,0.0,0.0,0.0,1.21846967915e-07,0.0,0.0,0.0,1.21846967915e-07,0.14166367054,0.192935079336,9.77387046814,9e-08,0.0,0.0,0.0,9e-08,0.0,0.0,0.0,9e-08
1560476573019646193,26240,1560476573015732800,base_link,-0.0133639997755,-0.000200241652909,-0.588471705558,-0.808407363785,1.0,0.0,0.0,0.0,1.0,0.0,0.0,0.0,1.0,0.00133288826328,-0.000288987881504,-0.000808429555036,1.21846967915e-07,0.0,0.0,0.0,1.21846967915e-07,0.0,0.0,0.0,1.21846967915e-07,0.182037949562,0.227314457297,9.80331325531,9e-08,0.0,0.0,0.0,9e-08,0.0,0.0,0.0,9e-08
1560476573038329811,26241,1560476573035730752,base_link,-0.013371693551,-0.000202797464144,-0.588460115174,-0.808415666714,1.0,0.0,0.0,0.0,1.0,0.0,0.0,0.0,1.0,0.000888230570126,0.00066425348632,-0.00186565471813,1.21846967915e-07,0.0,0.0,0.0,1.21846967915e-07,0.0,0.0,0.0,1.21846967915e-07,0.140309870243,0.200533628464,9.77756404877,9e-08,0.0,0.0,0.0,9e-08,0.0,0.0,0.0,9e-08
1560476573058777322,26242,1560476573055730752,base_link,-0.0133748341498,-0.000198334508014,-0.58845301343,-0.808420913997,1.0,0.0,0.0,0.0,1.0,0.0,0.0,0.0,1.0,0.000479957088828,0.00120401126333,-0.000809765188023,1.21846967915e-07,0.0,0.0,0.0,1.21846967915e-07,0.0,0.0,0.0,1.21846967915e-07,0.147271066904,0.236311629415,9.80444049835,9e-08,0.0,0.0,0.0,9e-08,0.0,0.0,0.0,9e-08
1560476573079377248,26243,1560476573076730752,base_link,-0.013372099873,-0.000199401350117,-0.588440095421,-0.808430207377,1.0,0.0,0.0,0.0,1.0,0.0,0.0,0.0,1.0,0.000794109539129,0.00194572238252,-0.00113237346523,1.21846967915e-07,0.0,0.0,0.0,1.21846967915e-07,0.0,0.0,0.0,1.21846967915e-07,0.154444739223,0.21070073545,9.8038482666,9e-08,0.0,0.0,0.0,9e-08,0.0,0.0,0.0,9e-08
1560476573097587971,26244,1560476573092730752,base_link,-0.013373084397,-0.000198140237384,-0.588436923871,-0.80843253599,1.0,0.0,0.0,0.0,1.0,0.0,0.0,0.0,1.0,0.000365002139006,0.000452619395219,-0.00143756577745,1.21846967915e-07,0.0,0.0,0.0,1.21846967915e-07,0.0,0.0,0.0,1.21846967915e-07,0.159887656569,0.213008731604,9.82614326477,9e-08,0.0,0.0,0.0,9e-08,0.0,0.0,0.0,9e-08
1560476573117582967,26245,1560476573112730752,base_link,-0.0133665160741,-0.000194295654546,-0.588423152388,-0.808442682844,1.0,0.0,0.0,0.0,1.0,0.0,0.0,0.0,1.0,-5.26613912371e-05,2.99698440358e-05,-0.000791338970885,1.21846967915e-07,0.0,0.0,0.0,1.21846967915e-07,0.0,0.0,0.0,1.21846967915e-07,0.138737887144,0.145534098148,9.80660629272,9e-08,0.0,0.0,0.0,9e-08,0.0,0.0,0.0,9e-08
1560476573139750708,26246,1560476573136727936,base_link,-0.0133764910478,-0.000189541621743,-0.588410898192,-0.808451480999,1.0,0.0,0.0,0.0,1.0,0.0,0.0,0.0,1.0,0.00183912087232,-0.00157710607164,-0.00272072851658,1.21846967915e-07,0.0,0.0,0.0,1.21846967915e-07,0.0,0.0,0.0,1.21846967915e-07,0.163842514157,0.220179572701,9.79462242126,9e-08,0.0,0.0,0.0,9e-08,0.0,0.0,0.0,9e-08
1560476573159648981,26247,1560476573156727936,base_link,-0.0133710264454,-0.000195497498273,-0.588400919925,-0.808458761867,1.0,0.0,0.0,0.0,1.0,0.0,0.0,0.0,1.0,-0.000590687966906,0.00204739160836,-0.00154006434605,1.21846967915e-07,0.0,0.0,0.0,1.21846967915e-07,0.0,0.0,0.0,1.21846967915e-07,0.142175659537,0.220556676388,9.77795982361,9e-08,0.0,0.0,0.0,9e-08,0.0,0.0,0.0,9e-08
1560476573179445914,26248,1560476573176727936,base_link,-0.0133655921362,-0.000199049687349,-0.588384482655,-0.808470731572,1.0,0.0,0.0,0.0,1.0,0.0,0.0,0.0,1.0,0.00153649831191,0.000347158667864,-0.00113160477486,1.21846967915e-07,0.0,0.0,0.0,1.21846967915e-07,0.0,0.0,0.0,1.21846967915e-07,0.155588328838,0.18507348001,9.81640338898,9e-08,0.0,0.0,0.0,9e-08,0.0,0.0,0.0,9e-08
1560476573199375529,26249,1560476573196727936,base_link,-0.0133583297073,-0.000199168225361,-0.588375136591,-0.808477717412,1.0,0.0,0.0,0.0,1.0,0.0,0.0,0.0,1.0,-0.000497215427458,0.000770404236391,-0.00175179040525,1.21846967915e-07,0.0,0.0,0.0,1.21846967915e-07,0.0,0.0,0.0,1.21846967915e-07,0.149217352271,0.218817293644,9.80423736572,9e-08,0.0,0.0,0.0,9e-08,0.0,0.0,0.0,9e-08
1560476573217464325,26250,1560476573212727936,base_link,-0.0133547063954,-0.000193797136354,-0.588365326912,-0.80848499828,1.0,0.0,0.0,0.0,1.0,0.0,0.0,0.0,1.0,-0.00112192099914,0.00055575708393,-0.00120749534108,1.21846967915e-07,0.0,0.0,0.0,1.21846967915e-07,0.0,0.0,0.0,1.21846967915e-07,0.160440772772,0.19150853157,9.78716659546,9e-08,0.0,0.0,0.0,9e-08,0.0,0.0,0.0,9e-08
1560476573239504361,26251,1560476573236724864,base_link,-0.0133407208857,-0.000195259763706,-0.588356275876,-0.808491773386,1.0,0.0,0.0,0.0,1.0,0.0,0.0,0.0,1.0,0.000909682014026,-0.000192911858903,-0.0014389482094,1.21846967915e-07,0.0,0.0,0.0,1.21846967915e-07,0.0,0.0,0.0,1.21846967915e-07,0.174323678017,0.18328076601,9.7633190155,9e-08,0.0,0.0,0.0,9e-08,0.0,0.0,0.0,9e-08
1560476573257915787,26252,1560476573252724864,base_link,-0.0133480834133,-0.000189983505108,-0.588345718091,-0.808499380892,1.0,0.0,0.0,0.0,1.0,0.0,0.0,0.0,1.0,0.00142073794268,0.000130576197989,-0.00187290669419,1.21846967915e-07,0.0,0.0,0.0,1.21846967915e-07,0.0,0.0,0.0,1.21846967915e-07,0.168279379606,0.210610002279,9.81471824646,9e-08,0.0,0.0,0.0,9e-08,0.0,0.0,0.0,9e-08
1560476573278767029,26253,1560476573276724864,base_link,-0.0133358799251,-0.000197236055774,-0.588332231099,-0.808509411842,1.0,0.0,0.0,0.0,1.0,0.0,0.0,0.0,1.0,0.000441291136667,0.00109611160588,-0.00228455942124,1.21846967915e-07,0.0,0.0,0.0,1.21846967915e-07,0.0,0.0,0.0,1.21846967915e-07,0.170439958572,0.194876194,9.79623889923,9e-08,0.0,0.0,0.0,9e-08,0.0,0.0,0.0,9e-08
1560476573299454052,26254,1560476573296724864,base_link,-0.0133384798588,-0.00019447148593,-0.588323822803,-0.808515459915,1.0,0.0,0.0,0.0,1.0,0.0,0.0,0.0,1.0,-0.000794145860709,0.000244606635533,-0.000247571617365,1.21846967915e-07,0.0,0.0,0.0,1.21846967915e-07,0.0,0.0,0.0,1.21846967915e-07,0.16983756423,0.195279091597,9.78549766541,9e-08,0.0,0.0,0.0,9e-08,0.0,0.0,0.0,9e-08
1560476573320043495,26255,1560476573316724864,base_link,-0.0133331739657,-0.000193889991129,-0.588313486288,-0.808523014738,1.0,0.0,0.0,0.0,1.0,0.0,0.0,0.0,1.0,-8.072800847e-05,0.000551138014998,-0.00216814503074,1.21846967915e-07,0.0,0.0,0.0,1.21846967915e-07,0.0,0.0,0.0,1.21846967915e-07,0.140522822738,0.210539922118,9.79110431671,9e-08,0.0,0.0,0.0,9e-08,0.0,0.0,0.0,9e-08
1560476573339376964,26256,1560476573336722816,base_link,-0.0133346517395,-0.000195058249086,-0.588307522509,-0.808527376936,1.0,0.0,0.0,0.0,1.0,0.0,0.0,0.0,1.0,-0.000811430974863,0.00109116523527,-0.00153074180707,1.21846967915e-07,0.0,0.0,0.0,1.21846967915e-07,0.0,0.0,0.0,1.21846967915e-07,0.188181787729,0.190117835999,9.80696773529,9e-08,0.0,0.0,0.0,9e-08,0.0,0.0,0.0,9e-08
1560476573359100859,26257,1560476573356722816,base_link,-0.013329612557,-0.000191525816346,-0.588297913028,-0.808534373313,1.0,0.0,0.0,0.0,1.0,0.0,0.0,0.0,1.0,-0.000712001987267,-0.000722006428987,-0.00205630087294,1.21846967915e-07,0.0,0.0,0.0,1.21846967915e-07,0.0,0.0,0.0,1.21846967915e-07,0.165945708752,0.208973228931,9.78461933136,9e-08,0.0,0.0,0.0,9e-08,0.0,0.0,0.0,9e-08
1560476573379814584,26258,1560476573376722816,base_link,-0.0133215993874,-0.000186347022335,-0.588290326595,-0.808540020991,1.0,0.0,0.0,0.0,1.0,0.0,0.0,0.0,1.0,-0.00208154437132,0.000240908528212,-0.000969275599346,1.21846967915e-07,0.0,0.0,0.0,1.21846967915e-07,0.0,0.0,0.0,1.21846967915e-07,0.165519684553,0.208669692278,9.7931804657,9e-08,0.0,0.0,0.0,9e-08,0.0,0.0,0.0,9e-08
1560476573399129565,26259,1560476573396722816,base_link,-0.0133208703786,-0.00018629368023,-0.5882783885,-0.808548840219,1.0,0.0,0.0,0.0,1.0,0.0,0.0,0.0,1.0,0.000372560869437,-0.000394052971387,-0.000473206164315,1.21846967915e-07,0.0,0.0,0.0,1.21846967915e-07,0.0,0.0,0.0,1.21846967915e-07,0.152673244476,0.168847456574,9.82168197632,9e-08,0.0,0.0,0.0,9e-08,0.0,0.0,0.0,9e-08
1560476573417519160,26260,1560476573412722816,base_link,-0.0133249843062,-0.000185511987899,-0.588273984154,-0.808551895865,1.0,0.0,0.0,0.0,1.0,0.0,0.0,0.0,1.0,-0.00124373240396,-0.00050760776503,-0.00151792448014,1.21846967915e-07,0.0,0.0,0.0,1.21846967915e-07,0.0,0.0,0.0,1.21846967915e-07,0.119930937886,0.204085588455,9.83055210114,9e-08,0.0,0.0,0.0,9e-08,0.0,0.0,0.0,9e-08
1560476573439598408,26261,1560476573436719744,base_link,-0.0133241380765,-0.000183759600963,-0.588261329563,-0.808561094415,1.0,0.0,0.0,0.0,1.0,0.0,0.0,0.0,1.0,-0.000287843693513,0.0003425720206,-0.00195952132344,1.21846967915e-07,0.0,0.0,0.0,1.21846967915e-07,0.0,0.0,0.0,1.21846967915e-07,0.172459945083,0.203390285373,9.8075761795,9e-08,0.0,0.0,0.0,9e-08,0.0,0.0,0.0,9e-08
1560476573459449636,26262,1560476573456719744,base_link,-0.0133227860846,-0.000190104677297,-0.588248211357,-0.808570672286,1.0,0.0,0.0,0.0,1.0,0.0,0.0,0.0,1.0,-0.000302747823298,0.00151059019845,-0.00249544414692,1.21846967915e-07,0.0,0.0,0.0,1.21846967915e-07,0.0,0.0,0.0,1.21846967915e-07,0.152774035931,0.192951232195,9.83284187317,9e-08,0.0,0.0,0.0,9e-08,0.0,0.0,0.0,9e-08
1560476573478980285,26263,1560476573476719744,base_link,-0.0133182711035,-0.00018889690667,-0.588231689792,-0.808582810579,1.0,0.0,0.0,0.0,1.0,0.0,0.0,0.0,1.0,0.000992935500108,2.10342986975e-05,-0.0018662736984,1.21846967915e-07,0.0,0.0,0.0,1.21846967915e-07,0.0,0.0,0.0,1.21846967915e-07,0.144398003817,0.178891479969,9.84148406982,9e-08,0.0,0.0,0.0,9e-08,0.0,0.0,0.0,9e-08
1560476573497694720,26264,1560476573492719744,base_link,-0.0133154288254,-0.000190923906665,-0.588231616035,-0.80858296863,1.0,0.0,0.0,0.0,1.0,0.0,0.0,0.0,1.0,0.000483852665639,0.00172671349719,-0.000378274125978,1.21846967915e-07,0.0,0.0,0.0,1.21846967915e-07,0.0,0.0,0.0,1.21846967915e-07,0.166011691093,0.193373009562,9.85859680176,9e-08,0.0,0.0,0.0,9e-08,0.0,0.0,0.0,9e-08
1560476573519727765,26265,1560476573516719744,base_link,-0.0133180300762,-0.000186984493418,-0.588218993054,-0.808592135569,1.0,0.0,0.0,0.0,1.0,0.0,0.0,0.0,1.0,0.000984866521321,-0.00114907836542,-0.00228679878637,1.21846967915e-07,0.0,0.0,0.0,1.21846967915e-07,0.0,0.0,0.0,1.21846967915e-07,0.149320930243,0.188305497169,9.81591320038,9e-08,0.0,0.0,0.0,9e-08,0.0,0.0,0.0,9e-08
1560476573539373705,26266,1560476573536716928,base_link,-0.0133204633981,-0.000186808662035,-0.588211259107,-0.808597593586,1.0,0.0,0.0,0.0,1.0,0.0,0.0,0.0,1.0,0.000683970225509,0.000236038496951,-0.000905677326955,1.21846967915e-07,0.0,0.0,0.0,1.21846967915e-07,0.0,0.0,0.0,1.21846967915e-07,0.138135358691,0.209695637226,9.80573654175,9e-08,0.0,0.0,0.0,9e-08,0.0,0.0,0.0,9e-08
1560476573558410795,26267,1560476573552716928,base_link,-0.0133299806833,-0.000188468194195,-0.588203177449,-0.808603399314,1.0,0.0,0.0,0.0,1.0,0.0,0.0,0.0,1.0,0.00109220913146,0.000237437692704,-0.0016540705692,1.21846967915e-07,0.0,0.0,0.0,1.21846967915e-07,0.0,0.0,0.0,1.21846967915e-07,0.168200060725,0.237940192223,9.80793762207,9e-08,0.0,0.0,0.0,9e-08,0.0,0.0,0.0,9e-08
1560476573578458989,26268,1560476573573716928,base_link,-0.0133238318533,-0.000184061872892,-0.588194389831,-0.808609826709,1.0,0.0,0.0,0.0,1.0,0.0,0.0,0.0,1.0,-0.000584900786635,-7.9418241512e-05,-0.000458301394247,1.21846967915e-07,0.0,0.0,0.0,1.21846967915e-07,0.0,0.0,0.0,1.21846967915e-07,0.139379411936,0.240559607744,9.82310199738,9e-08,0.0,0.0,0.0,9e-08,0.0,0.0,0.0,9e-08
1560476573597667423,26269,1560476573593716928,base_link,-0.0133232371876,-0.00017914583814,-0.588184506395,-0.808617012746,1.0,0.0,0.0,0.0,1.0,0.0,0.0,0.0,1.0,0.00121694954578,-0.00167464104015,-0.000258589279838,1.21846967915e-07,0.0,0.0,0.0,1.21846967915e-07,0.0,0.0,0.0,1.21846967915e-07,0.122135773301,0.246781483293,9.78037166595,9e-08,0.0,0.0,0.0,9e-08,0.0,0.0,0.0,9e-08
1560476573617526014,26270,1560476573613716928,base_link,-0.013315748878,-0.000181319693561,-0.588171282821,-0.808626864572,1.0,0.0,0.0,0.0,1.0,0.0,0.0,0.0,1.0,0.00132583861705,-0.000408914143918,-0.00101349118631,1.21846967915e-07,0.0,0.0,0.0,1.21846967915e-07,0.0,0.0,0.0,1.21846967915e-07,0.152393221855,0.189654305577,9.80345821381,9e-08,0.0,0.0,0.0,9e-08,0.0,0.0,0.0,9e-08
1560476573639148192,26271,1560476573633715136,base_link,-0.0133181466385,-0.000180354925857,-0.588156615718,-0.808637485578,1.0,0.0,0.0,0.0,1.0,0.0,0.0,0.0,1.0,0.000698693678714,0.00239554932341,-0.000604171538725,1.21846967915e-07,0.0,0.0,0.0,1.21846967915e-07,0.0,0.0,0.0,1.21846967915e-07,0.164745420218,0.212639182806,9.81184959412,9e-08,0.0,0.0,0.0,9e-08,0.0,0.0,0.0,9e-08
1560476573657245316,26272,1560476573653715136,base_link,-0.0133199912217,-0.000177392134115,-0.588151431656,-0.808641152354,1.0,0.0,0.0,0.0,1.0,0.0,0.0,0.0,1.0,0.000781615031883,-0.000824588350952,-0.00186162919272,1.21846967915e-07,0.0,0.0,0.0,1.21846967915e-07,0.0,0.0,0.0,1.21846967915e-07,0.153594121337,0.204961776733,9.81246089935,9e-08,0.0,0.0,0.0,9e-08,0.0,0.0,0.0,9e-08
1560476573678143066,26273,1560476573673715136,base_link,-0.0133188756473,-0.000181746430402,-0.588144403669,-0.80864632588,1.0,0.0,0.0,0.0,1.0,0.0,0.0,0.0,1.0,-0.000680414319504,0.00108993717004,0.000178794609383,1.21846967915e-07,0.0,0.0,0.0,1.21846967915e-07,0.0,0.0,0.0,1.21846967915e-07,0.153915509582,0.168781042099,9.83712673187,9e-08,0.0,0.0,0.0,9e-08,0.0,0.0,0.0,9e-08
1560476573697315414,26274,1560476573693715136,base_link,-0.0133105384738,-0.000180580806623,-0.588136890993,-0.8086518998,1.0,0.0,0.0,0.0,1.0,0.0,0.0,0.0,1.0,0.000672773516271,-8.68395145517e-05,-0.00175333116204,1.21846967915e-07,0.0,0.0,0.0,1.21846967915e-07,0.0,0.0,0.0,1.21846967915e-07,0.178809791803,0.222316414118,9.77814769745,9e-08,0.0,0.0,0.0,9e-08,0.0,0.0,0.0,9e-08
1560476573717653120,26275,1560476573713715136,base_link,-0.013310118981,-0.000179079983689,-0.588131243315,-0.808656030191,1.0,0.0,0.0,0.0,1.0,0.0,0.0,0.0,1.0,0.000467662728624,0.00066627090564,-0.000909229274839,1.21846967915e-07,0.0,0.0,0.0,1.21846967915e-07,0.0,0.0,0.0,1.21846967915e-07,0.160911902785,0.20017939806,9.8238286972,9e-08,0.0,0.0,0.0,9e-08,0.0,0.0,0.0,9e-08
1560476573737305765,26276,1560476573733713344,base_link,-0.0133096481217,-0.000172899543482,-0.58812533222,-0.808660255413,1.0,0.0,0.0,0.0,1.0,0.0,0.0,0.0,1.0,0.000271468714345,-0.00166568276472,0.000378464348614,1.21846967915e-07,0.0,0.0,0.0,1.21846967915e-07,0.0,0.0,0.0,1.21846967915e-07,0.168602317572,0.216515019536,9.7690038681,9e-08,0.0,0.0,0.0,9e-08,0.0,0.0,0.0,9e-08
1560476573760482486,26277,1560476573757713344,base_link,-0.0133134169719,-0.000164231122123,-0.588116607822,-0.808666619587,1.0,0.0,0.0,0.0,1.0,0.0,0.0,0.0,1.0,0.000226199103054,-0.000506181386299,-0.00292683159932,1.21846967915e-07,0.0,0.0,0.0,1.21846967915e-07,0.0,0.0,0.0,1.21846967915e-07,0.18468362093,0.196576490998,9.79372692108,9e-08,0.0,0.0,0.0,9e-08,0.0,0.0,0.0,9e-08
1560476573777564452,26278,1560476573773713344,base_link,-0.0133121782497,-0.000159351965864,-0.588105860376,-0.808674501048,1.0,0.0,0.0,0.0,1.0,0.0,0.0,0.0,1.0,-6.95381386322e-05,-0.000824906281196,-0.0013213257771,1.21846967915e-07,0.0,0.0,0.0,1.21846967915e-07,0.0,0.0,0.0,1.21846967915e-07,0.182871684432,0.170779496431,9.77003383636,9e-08,0.0,0.0,0.0,9e-08,0.0,0.0,0.0,9e-08
1560476573800521606,26279,1560476573797713344,base_link,-0.0133068288926,-0.000147007549061,-0.588092204797,-0.808684531998,1.0,0.0,0.0,0.0,1.0,0.0,0.0,0.0,1.0,0.00162936327979,-0.000504959723912,-0.00134440057445,1.21846967915e-07,0.0,0.0,0.0,1.21846967915e-07,0.0,0.0,0.0,1.21846967915e-07,0.183908626437,0.188349187374,9.80416107178,9e-08,0.0,0.0,0.0,9e-08,0.0,0.0,0.0,9e-08
1560476573818625376,26280,1560476573813713344,base_link,-0.0133047248429,-0.000147245283629,-0.588087305226,-0.808687998576,1.0,0.0,0.0,0.0,1.0,0.0,0.0,0.0,1.0,0.000358886201866,-0.00050630653277,-0.0014344563242,1.21846967915e-07,0.0,0.0,0.0,1.21846967915e-07,0.0,0.0,0.0,1.21846967915e-07,0.148710265756,0.163861781359,9.79057979584,9e-08,0.0,0.0,0.0,9e-08,0.0,0.0,0.0,9e-08
1560476573837636576,26281,1560476573833711296,base_link,-0.0133044094001,-0.000155103695243,-0.58807908659,-0.808693941282,1.0,0.0,0.0,0.0,1.0,0.0,0.0,0.0,1.0,-0.000732526008505,0.00129662186373,-0.00269867409952,1.21846967915e-07,0.0,0.0,0.0,1.21846967915e-07,0.0,0.0,0.0,1.21846967915e-07,0.160755172372,0.204805895686,9.8215713501,9e-08,0.0,0.0,0.0,9e-08,0.0,0.0,0.0,9e-08
1560476573857649232,26282,1560476573853711296,base_link,-0.0133024936941,-0.000151782655289,-0.588074429363,-0.808697418397,1.0,0.0,0.0,0.0,1.0,0.0,0.0,0.0,1.0,-0.00145208602771,0.000345933018252,-0.00120382523164,1.21846967915e-07,0.0,0.0,0.0,1.21846967915e-07,0.0,0.0,0.0,1.21846967915e-07,0.154039949179,0.204393595457,9.7507352829,9e-08,0.0,0.0,0.0,9e-08,0.0,0.0,0.0,9e-08
1560476573878242489,26283,1560476573873711296,base_link,-0.0132872483888,-0.000147515286877,-0.588061437597,-0.808707207002,1.0,0.0,0.0,0.0,1.0,0.0,0.0,0.0,1.0,-0.00253136199899,1.88394042198e-05,-0.00171716837212,1.21846967915e-07,0.0,0.0,0.0,1.21846967915e-07,0.0,0.0,0.0,1.21846967915e-07,0.164599955082,0.20266546309,9.79546070099,9e-08,0.0,0.0,0.0,9e-08,0.0,0.0,0.0,9e-08
1560476573897537494,26284,1560476573893711296,base_link,-0.0132761828654,-0.000153338795961,-0.588055041813,-0.808711916913,1.0,0.0,0.0,0.0,1.0,0.0,0.0,0.0,1.0,-0.000936076161452,0.000879516534042,-0.00216637598351,1.21846967915e-07,0.0,0.0,0.0,1.21846967915e-07,0.0,0.0,0.0,1.21846967915e-07,0.146250158548,0.18908201158,9.81332588196,9e-08,0.0,0.0,0.0,9e-08,0.0,0.0,0.0,9e-08
1560476573917332574,26285,1560476573914711296,base_link,-0.0132774769054,-0.000157118182892,-0.588046454393,-0.808718228403,1.0,0.0,0.0,0.0,1.0,0.0,0.0,0.0,1.0,-0.000936367199756,-0.000723144039512,-0.00215968862176,1.21846967915e-07,0.0,0.0,0.0,1.21846967915e-07,0.0,0.0,0.0,1.21846967915e-07,0.132107913494,0.216815441847,9.78293037415,9e-08,0.0,0.0,0.0,9e-08,0.0,0.0,0.0,9e-08
1560476573938343625,26286,1560476573935707200,base_link,-0.0132749151672,-0.000163147816408,-0.588036307539,-0.808725677859,1.0,0.0,0.0,0.0,1.0,0.0,0.0,0.0,1.0,-6.65864208713e-05,0.00152231846005,-0.000587503542192,1.21846967915e-07,0.0,0.0,0.0,1.21846967915e-07,0.0,0.0,0.0,1.21846967915e-07,0.150455623865,0.236942440271,9.80803108215,9e-08,0.0,0.0,0.0,9e-08,0.0,0.0,0.0,9e-08
1560476573958387393,26287,1560476573955707200,base_link,-0.0132742335737,-0.000157928851182,-0.588024464275,-0.808734317963,1.0,0.0,0.0,0.0,1.0,0.0,0.0,0.0,1.0,2.49046934186e-05,-0.00146124931052,-0.00184655096382,1.21846967915e-07,0.0,0.0,0.0,1.21846967915e-07,0.0,0.0,0.0,1.21846967915e-07,0.127990618348,0.172081112862,9.83224868774,9e-08,0.0,0.0,0.0,9e-08,0.0,0.0,0.0,9e-08
1560476573978631574,26288,1560476573975707200,base_link,-0.0132687748982,-0.000153384235532,-0.588011314458,-0.80874384315,1.0,0.0,0.0,0.0,1.0,0.0,0.0,0.0,1.0,1.9584891561e-05,0.000337340228725,-0.00217701424845,1.21846967915e-07,0.0,0.0,0.0,1.21846967915e-07,0.0,0.0,0.0,1.21846967915e-07,0.141618087888,0.24274533987,9.8224029541,9e-08,0.0,0.0,0.0,9e-08,0.0,0.0,0.0,9e-08
1560476573998583511,26289,1560476573995707200,base_link,-0.0132609856338,-0.000147895925603,-0.588004486668,-0.808748985066,1.0,0.0,0.0,0.0,1.0,0.0,0.0,0.0,1.0,-0.00176369969267,0.00131046399474,-0.000129800755531,1.21846967915e-07,0.0,0.0,0.0,1.21846967915e-07,0.0,0.0,0.0,1.21846967915e-07,0.160867631435,0.223127990961,9.77705192566,9e-08,0.0,0.0,0.0,9e-08,0.0,0.0,0.0,9e-08
1560476574019464005,26290,1560476574015707200,base_link,-0.0132574538596,-0.000157581139682,-0.5879972058,-0.808754327179,1.0,0.0,0.0,0.0,1.0,0.0,0.0,0.0,1.0,0.00182953616604,-0.000301497086184,-0.00167134101503,1.21846967915e-07,0.0,0.0,0.0,1.21846967915e-07,0.0,0.0,0.0,1.21846967915e-07,0.147100403905,0.197131901979,9.81067848206,9e-08,0.0,0.0,0.0,9e-08,0.0,0.0,0.0,9e-08
1560476574038545518,26291,1560476574035705152,base_link,-0.0132565075311,-0.000161984826806,-0.587997005603,-0.808754527376,1.0,0.0,0.0,0.0,1.0,0.0,0.0,0.0,1.0,-0.000398181146011,0.000350808113581,-0.00131909386255,1.21846967915e-07,0.0,0.0,0.0,1.21846967915e-07,0.0,0.0,0.0,1.21846967915e-07,0.15422205627,0.209823042154,9.80389213562,9e-08,0.0,0.0,0.0,9e-08,0.0,0.0,0.0,9e-08
1560476574059490045,26292,1560476574055705152,base_link,-0.0132532194184,-0.000160522199454,-0.587987480415,-0.808761523753,1.0,0.0,0.0,0.0,1.0,0.0,0.0,0.0,1.0,0.000681784993503,0.000455926085124,-0.000376012641937,1.21846967915e-07,0.0,0.0,0.0,1.21846967915e-07,0.0,0.0,0.0,1.21846967915e-07,0.136121913791,0.207425236702,9.8035030365,9e-08,0.0,0.0,0.0,9e-08,0.0,0.0,0.0,9e-08
1560476574078049542,26293,1560476574075705152,base_link,-0.0132540610383,-0.000169911727049,-0.587980937117,-0.80876621259,1.0,0.0,0.0,0.0,1.0,0.0,0.0,0.0,1.0,0.000770790094975,0.00119559676386,-0.00144501426257,1.21846967915e-07,0.0,0.0,0.0,1.21846967915e-07,0.0,0.0,0.0,1.21846967915e-07,0.145711690187,0.219901382923,9.80750656128,9e-08,0.0,0.0,0.0,9e-08,0.0,0.0,0.0,9e-08
1560476574098985807,26294,1560476574095705152,base_link,-0.0132502210653,-0.000175186010013,-0.58796865131,-0.808775295236,1.0,0.0,0.0,0.0,1.0,0.0,0.0,0.0,1.0,0.000238290827838,-8.24933231343e-05,-0.00165121746249,1.21846967915e-07,0.0,0.0,0.0,1.21846967915e-07,0.0,0.0,0.0,1.21846967915e-07,0.137037172914,0.227765977383,9.82768440247,9e-08,0.0,0.0,0.0,9e-08,0.0,0.0,0.0,9e-08
1560476574118099468,26295,1560476574115705152,base_link,-0.0132416863284,-0.000178091508383,-0.587956312821,-0.808784346272,1.0,0.0,0.0,0.0,1.0,0.0,0.0,0.0,1.0,0.00106900476385,0.00225068512373,-0.00315984385088,1.21846967915e-07,0.0,0.0,0.0,1.21846967915e-07,0.0,0.0,0.0,1.21846967915e-07,0.11914730072,0.226664364338,9.79199886322,9e-08,0.0,0.0,0.0,9e-08,0.0,0.0,0.0,9e-08
1560476574138744594,26296,1560476574135703104,base_link,-0.0132491456621,-0.000177268986292,-0.587952530141,-0.808787033133,1.0,0.0,0.0,0.0,1.0,0.0,0.0,0.0,1.0,-0.000290158612188,-0.000399853510316,-0.00120739801787,1.21846967915e-07,0.0,0.0,0.0,1.21846967915e-07,0.0,0.0,0.0,1.21846967915e-07,0.155037432909,0.181558966637,9.81415939331,9e-08,0.0,0.0,0.0,9e-08,0.0,0.0,0.0,9e-08
1560476574158511919,26297,1560476574155703104,base_link,-0.0132519800376,-0.000182065824488,-0.587944543313,-0.808792659738,1.0,0.0,0.0,0.0,1.0,0.0,0.0,0.0,1.0,0.0011911081383,0.00183403259143,-0.00209334027022,1.21846967915e-07,0.0,0.0,0.0,1.21846967915e-07,0.0,0.0,0.0,1.21846967915e-07,0.189699858427,0.220504850149,9.80816841125,9e-08,0.0,0.0,0.0,9e-08,0.0,0.0,0.0,9e-08
1560476574179140362,26298,1560476574175703104,base_link,-0.0132434248859,-0.000180460951522,-0.587935112956,-0.808799645578,1.0,0.0,0.0,0.0,1.0,0.0,0.0,0.0,1.0,-0.000190904145711,0.000233663100516,-0.00207056105137,1.21846967915e-07,0.0,0.0,0.0,1.21846967915e-07,0.0,0.0,0.0,1.21846967915e-07,0.173957869411,0.211213052273,9.83299350739,9e-08,0.0,0.0,0.0,9e-08,0.0,0.0,0.0,9e-08
1560476574197988245,26299,1560476574195703104,base_link,-0.013237647475,-0.000176352292337,-0.587927273642,-0.808805546137,1.0,0.0,0.0,0.0,1.0,0.0,0.0,0.0,1.0,-0.000512477592565,0.000988961663097,-0.00110300339293,1.21846967915e-07,0.0,0.0,0.0,1.21846967915e-07,0.0,0.0,0.0,1.21846967915e-07,0.133250296116,0.177119851112,9.82228279114,9e-08,0.0,0.0,0.0,9e-08,0.0,0.0,0.0,9e-08
1560476574218534529,26300,1560476574215703104,base_link,-0.0132483758236,-0.000168147486312,-0.587919982237,-0.808810561611,1.0,0.0,0.0,0.0,1.0,0.0,0.0,0.0,1.0,0.00109641300514,-0.000721634016372,-0.00133362342604,1.21846967915e-07,0.0,0.0,0.0,1.21846967915e-07,0.0,0.0,0.0,1.21846967915e-07,0.160783261061,0.196585685015,9.78638744354,9e-08,0.0,0.0,0.0,9e-08,0.0,0.0,0.0,9e-08
1560476574238136076,26301,1560476574235701312,base_link,-0.013240673487,-0.000163652261501,-0.587914903542,-0.808814375901,1.0,0.0,0.0,0.0,1.0,0.0,0.0,0.0,1.0,0.000460465351352,-0.00102778896689,-0.000570750329643,1.21846967915e-07,0.0,0.0,0.0,1.21846967915e-07,0.0,0.0,0.0,1.21846967915e-07,0.147893279791,0.214838594198,9.82263183594,9e-08,0.0,0.0,0.0,9e-08,0.0,0.0,0.0,9e-08
1560476574259430587,26302,1560476574255701312,base_link,-0.0132420933089,-0.000161866288795,-0.587910362219,-0.808817652819,1.0,0.0,0.0,0.0,1.0,0.0,0.0,0.0,1.0,0.00183669733815,0.000240779278101,-0.000587272108532,1.21846967915e-07,0.0,0.0,0.0,1.21846967915e-07,0.0,0.0,0.0,1.21846967915e-07,0.170116946101,0.195325911045,9.81027317047,9e-08,0.0,0.0,0.0,9e-08,0.0,0.0,0.0,9e-08
1560476574278563152,26303,1560476574275701312,base_link,-0.0132391529077,-0.000160090194257,-0.587899909801,-0.808825407839,1.0,0.0,0.0,0.0,1.0,0.0,0.0,0.0,1.0,0.000549130083527,-0.00040450275992,-0.00228035682812,1.21846967915e-07,0.0,0.0,0.0,1.21846967915e-07,0.0,0.0,0.0,1.21846967915e-07,0.187486991286,0.171616256237,9.8214263916,9e-08,0.0,0.0,0.0,9e-08,0.0,0.0,0.0,9e-08
1560476574297295167,26304,1560476574292701312,base_link,-0.0132387446101,-0.00016466312732,-0.587896074437,-0.808828147384,1.0,0.0,0.0,0.0,1.0,0.0,0.0,0.0,1.0,0.000674148730468,0.000240611843765,-0.000581858446822,1.21846967915e-07,0.0,0.0,0.0,1.21846967915e-07,0.0,0.0,0.0,1.21846967915e-07,0.161243349314,0.15303760767,9.81432247162,9e-08,0.0,0.0,0.0,9e-08,0.0,0.0,0.0,9e-08
1560476574319034605,26305,1560476574316701312,base_link,-0.0132345022664,-0.00017136974459,-0.587893514016,-0.808830033456,1.0,0.0,0.0,0.0,1.0,0.0,0.0,0.0,1.0,0.00132514827419,0.000344398926245,-0.000588331720792,1.21846967915e-07,0.0,0.0,0.0,1.21846967915e-07,0.0,0.0,0.0,1.21846967915e-07,0.189324453473,0.223162263632,9.78826236725,9e-08,0.0,0.0,0.0,9e-08,0.0,0.0,0.0,9e-08
1560476574337250283,26306,1560476574332699264,base_link,-0.0132309889315,-0.000170207413533,-0.587891248623,-0.808831708793,1.0,0.0,0.0,0.0,1.0,0.0,0.0,0.0,1.0,-4.99661182403e-05,0.000134626985528,0.000176372472197,1.21846967915e-07,0.0,0.0,0.0,1.21846967915e-07,0.0,0.0,0.0,1.21846967915e-07,0.143148228526,0.18462562561,9.83037090302,9e-08,0.0,0.0,0.0,9e-08,0.0,0.0,0.0,9e-08
1560476574359482433,26307,1560476574356699264,base_link,-0.0132295012794,-0.000170416172142,-0.587888003316,-0.808834195457,1.0,0.0,0.0,0.0,1.0,0.0,0.0,0.0,1.0,0.00132636760827,-0.000818119617179,0.000587313435972,1.21846967915e-07,0.0,0.0,0.0,1.21846967915e-07,0.0,0.0,0.0,1.21846967915e-07,0.163713723421,0.197775840759,9.78635501862,9e-08,0.0,0.0,0.0,9e-08,0.0,0.0,0.0,9e-08
1560476574379519436,26308,1560476574376699264,base_link,-0.0132277146482,-0.000165035204967,-0.587879373749,-0.808840464801,1.0,0.0,0.0,0.0,1.0,0.0,0.0,0.0,1.0,-0.00092730729375,-0.000610578455962,-0.000876186531968,1.21846967915e-07,0.0,0.0,0.0,1.21846967915e-07,0.0,0.0,0.0,1.21846967915e-07,0.162924408913,0.175534516573,9.83322143555,9e-08,0.0,0.0,0.0,9e-08,0.0,0.0,0.0,9e-08
1560476574399098988,26309,1560476574396699264,base_link,-0.0132196718441,-0.000168717127312,-0.587872472202,-0.808845511886,1.0,0.0,0.0,0.0,1.0,0.0,0.0,0.0,1.0,-0.000619581202045,0.000131316148327,-0.00120018224698,1.21846967915e-07,0.0,0.0,0.0,1.21846967915e-07,0.0,0.0,0.0,1.21846967915e-07,0.160022944212,0.185502052307,9.75996494293,9e-08,0.0,0.0,0.0,9e-08,0.0,0.0,0.0,9e-08
1560476574417643912,26310,1560476574412699264,base_link,-0.0132164502444,-0.000169103034393,-0.587867741218,-0.808849147051,1.0,0.0,0.0,0.0,1.0,0.0,0.0,0.0,1.0,0.000248087599175,0.000562944391277,-0.000470124185085,1.21846967915e-07,0.0,0.0,0.0,1.21846967915e-07,0.0,0.0,0.0,1.21846967915e-07,0.153785407543,0.207965940237,9.75963783264,9e-08,0.0,0.0,0.0,9e-08,0.0,0.0,0.0,9e-08
1560476574439457791,26311,1560476574436695936,base_link,-0.0132163369747,-0.000172208730293,-0.587862483399,-0.808852971878,1.0,0.0,0.0,0.0,1.0,0.0,0.0,0.0,1.0,-0.000821846479084,-0.00178145803511,-0.00108305911999,1.21846967915e-07,0.0,0.0,0.0,1.21846967915e-07,0.0,0.0,0.0,1.21846967915e-07,0.182249397039,0.145386070013,9.78753566742,9e-08,0.0,0.0,0.0,9e-08,0.0,0.0,0.0,9e-08
1560476574459305386,26312,1560476574456695936,base_link,-0.0132145345384,-0.000167586406391,-0.587849955248,-0.808862043987,1.0,0.0,0.0,0.0,1.0,0.0,0.0,0.0,1.0,0.000111201385153,0.00161151820794,-0.00270473072305,1.21846967915e-07,0.0,0.0,0.0,1.21846967915e-07,0.0,0.0,0.0,1.21846967915e-07,0.173204362392,0.198877766728,9.79077339172,9e-08,0.0,0.0,0.0,9e-08,0.0,0.0,0.0,9e-08
1560476574478974420,26313,1560476574476695936,base_link,-0.0131999872902,-0.000170822494104,-0.587835087947,-0.808873033778,1.0,0.0,0.0,0.0,1.0,0.0,0.0,0.0,1.0,-0.0001128816657,-9.3940179795e-05,-0.00343968183734,1.21846967915e-07,0.0,0.0,0.0,1.21846967915e-07,0.0,0.0,0.0,1.21846967915e-07,0.158683300018,0.198065027595,9.81027507782,9e-08,0.0,0.0,0.0,9e-08,0.0,0.0,0.0,9e-08
1560476574497557251,26314,1560476574492695936,base_link,-0.013199939875,-0.000168546564284,-0.587826943069,-0.808879071314,1.0,0.0,0.0,0.0,1.0,0.0,0.0,0.0,1.0,-0.00051944074221,0.000977410119958,-0.00205586710945,1.21846967915e-07,0.0,0.0,0.0,1.21846967915e-07,0.0,0.0,0.0,1.21846967915e-07,0.140216901898,0.194928228855,9.85358905792,9e-08,0.0,0.0,0.0,9e-08,0.0,0.0,0.0,9e-08
1560476574519426648,26315,1560476574516695936,base_link,-0.0132029421794,-0.000169096448948,-0.587820125816,-0.808883865518,1.0,0.0,0.0,0.0,1.0,0.0,0.0,0.0,1.0,-0.000303178618196,0.000341411941918,-0.00152333267033,1.21846967915e-07,0.0,0.0,0.0,1.21846967915e-07,0.0,0.0,0.0,1.21846967915e-07,0.135029643774,0.193738952279,9.81059360504,9e-08,0.0,0.0,0.0,9e-08,0.0,0.0,0.0,9e-08
1560476574537427200,26316,1560476574532693888,base_link,-0.0132049731307,-0.000172727663365,-0.587816090256,-0.808886889554,1.0,0.0,0.0,0.0,1.0,0.0,0.0,0.0,1.0,-0.00158939673565,0.000126517785247,-0.00193226640113,1.21846967915e-07,0.0,0.0,0.0,1.21846967915e-07,0.0,0.0,0.0,1.21846967915e-07,0.134194403887,0.236942797899,9.79972171783,9e-08,0.0,0.0,0.0,9e-08,0.0,0.0,0.0,9e-08
1560476574559593689,26317,1560476574556693888,base_link,-0.0132050403022,-0.000169363818018,-0.587804847584,-0.808895013359,1.0,0.0,0.0,0.0,1.0,0.0,0.0,0.0,1.0,-0.000737554742955,0.0001244845771,-0.00236762594432,1.21846967915e-07,0.0,0.0,0.0,1.21846967915e-07,0.0,0.0,0.0,1.21846967915e-07,0.155635431409,0.201778203249,9.79487895966,9e-08,0.0,0.0,0.0,9e-08,0.0,0.0,0.0,9e-08
1560476574577279479,26318,1560476574572693888,base_link,-0.0132081012171,-0.000171928190332,-0.587800485385,-0.808898111153,1.0,0.0,0.0,0.0,1.0,0.0,0.0,0.0,1.0,-0.000504782423377,0.000452684122138,-0.000773083069362,1.21846967915e-07,0.0,0.0,0.0,1.21846967915e-07,0.0,0.0,0.0,1.21846967915e-07,0.171430796385,0.216965585947,9.79928016663,9e-08,0.0,0.0,0.0,9e-08,0.0,0.0,0.0,9e-08
1560476574599406381,26319,1560476574596693888,base_link,-0.0132100221914,-0.000169895263436,-0.58778627136,-0.808908363373,1.0,0.0,0.0,0.0,1.0,0.0,0.0,0.0,1.0,0.00193468644284,-0.00114813784603,-0.00143883330747,1.21846967915e-07,0.0,0.0,0.0,1.21846967915e-07,0.0,0.0,0.0,1.21846967915e-07,0.173765063286,0.200530260801,9.83135890961,9e-08,0.0,0.0,0.0,9e-08,0.0,0.0,0.0,9e-08
1560476574619986192,26320,1560476574616693888,base_link,-0.0132029158376,-0.000173664113656,-0.587783595035,-0.808910449642,1.0,0.0,0.0,0.0,1.0,0.0,0.0,0.0,1.0,-0.000944124418311,-0.000196392036742,-0.0017234380357,1.21846967915e-07,0.0,0.0,0.0,1.21846967915e-07,0.0,0.0,0.0,1.21846967915e-07,0.127554371953,0.222454667091,9.83243370056,9e-08,0.0,0.0,0.0,9e-08,0.0,0.0,0.0,9e-08
1560476574639470388,26321,1560476574636691584,base_link,-0.0132033893311,-0.000170061216652,-0.587775945382,-0.808916076247,1.0,0.0,0.0,0.0,1.0,0.0,0.0,0.0,1.0,0.000652755144984,0.000553384423256,-0.00164571986534,1.21846967915e-07,0.0,0.0,0.0,1.21846967915e-07,0.0,0.0,0.0,1.21846967915e-07,0.143854796886,0.21746455133,9.80240917206,9e-08,0.0,0.0,0.0,9e-08,0.0,0.0,0.0,9e-08
1560476574659415274,26322,1560476574656691584,base_link,-0.0131933294052,-0.000164374026281,-0.58776765299,-0.808922261297,1.0,0.0,0.0,0.0,1.0,0.0,0.0,0.0,1.0,-0.000283748231595,-0.000183412077604,-2.82584223896e-05,1.21846967915e-07,0.0,0.0,0.0,1.21846967915e-07,0.0,0.0,0.0,1.21846967915e-07,0.136518627405,0.205575972795,9.79196929932,9e-08,0.0,0.0,0.0,9e-08,0.0,0.0,0.0,9e-08
1560476574678883839,26323,1560476574676691584,base_link,-0.0131942783679,-0.000158928521745,-0.587769749796,-0.808920670253,1.0,0.0,0.0,0.0,1.0,0.0,0.0,0.0,1.0,-0.00113750109449,0.000237634027144,-0.000881288200617,1.21846967915e-07,0.0,0.0,0.0,1.21846967915e-07,0.0,0.0,0.0,1.21846967915e-07,0.126296803355,0.188563153148,9.80617713928,9e-08,0.0,0.0,0.0,9e-08,0.0,0.0,0.0,9e-08
1560476574697357298,26324,1560476574692691584,base_link,-0.0131875058961,-0.000156182391147,-0.587761857798,-0.808926454908,1.0,0.0,0.0,0.0,1.0,0.0,0.0,0.0,1.0,-0.00212048646063,0.00044430422713,-0.00213693245314,1.21846967915e-07,0.0,0.0,0.0,1.21846967915e-07,0.0,0.0,0.0,1.21846967915e-07,0.142727538943,0.19591614604,9.86029529572,9e-08,0.0,0.0,0.0,9e-08,0.0,0.0,0.0,9e-08
1560476574719343089,26325,1560476574716691584,base_link,-0.0131970653282,-0.000156827764764,-0.587750140974,-0.808934968572,1.0,0.0,0.0,0.0,1.0,0.0,0.0,0.0,1.0,0.000944303465076,-0.00020363528165,-0.00356066250242,1.21846967915e-07,0.0,0.0,0.0,1.21846967915e-07,0.0,0.0,0.0,1.21846967915e-07,0.154921382666,0.202973812819,9.84507274628,9e-08,0.0,0.0,0.0,9e-08,0.0,0.0,0.0,9e-08
1560476574739368305,26326,1560476574736689536,base_link,-0.0132004015147,-0.000164889666631,-0.587737897315,-0.808943756189,1.0,0.0,0.0,0.0,1.0,0.0,0.0,0.0,1.0,0.000763484975323,-0.000616814475507,-0.00110651913565,1.21846967915e-07,0.0,0.0,0.0,1.21846967915e-07,0.0,0.0,0.0,1.21846967915e-07,0.172243192792,0.217635959387,9.83380889893,9e-08,0.0,0.0,0.0,9e-08,0.0,0.0,0.0,9e-08
1560476574759183726,26327,1560476574756689536,base_link,-0.01319684735,-0.000157352624737,-0.587725917073,-0.808952533271,1.0,0.0,0.0,0.0,1.0,0.0,0.0,0.0,1.0,0.000120588381833,-0.000500521389768,-0.00162540667225,1.21846967915e-07,0.0,0.0,0.0,1.21846967915e-07,0.0,0.0,0.0,1.21846967915e-07,0.147337034345,0.197591513395,9.78019332886,9e-08,0.0,0.0,0.0,9e-08,0.0,0.0,0.0,9e-08
1560476574778477563,26328,1560476574772689536,base_link,-0.013198771617,-0.000155124110122,-0.587724189052,-0.808953755529,1.0,0.0,0.0,0.0,1.0,0.0,0.0,0.0,1.0,-0.000183184456546,-0.000175304157892,0.000399455195293,1.21846967915e-07,0.0,0.0,0.0,1.21846967915e-07,0.0,0.0,0.0,1.21846967915e-07,0.141397640109,0.20341822505,9.80196475983,9e-08,0.0,0.0,0.0,9e-08,0.0,0.0,0.0,9e-08
1560476574796610636,26329,1560476574793689536,base_link,-0.0131851818926,-0.000146141563033,-0.587714895672,-0.808960688686,1.0,0.0,0.0,0.0,1.0,0.0,0.0,0.0,1.0,0.000125523627503,-0.00178067409433,-0.00119878025725,1.21846967915e-07,0.0,0.0,0.0,1.21846967915e-07,0.0,0.0,0.0,1.21846967915e-07,0.152285695076,0.188117057085,9.79764461517,9e-08,0.0,0.0,0.0,9e-08,0.0,0.0,0.0,9e-08
1560476574818643020,26330,1560476574813689536,base_link,-0.013185321504,-0.00015033517446,-0.587704053395,-0.808968580683,1.0,0.0,0.0,0.0,1.0,0.0,0.0,0.0,1.0,0.00170543137938,0.000234185194131,-0.00155674759299,1.21846967915e-07,0.0,0.0,0.0,1.21846967915e-07,0.0,0.0,0.0,1.21846967915e-07,0.157984763384,0.176697328687,9.77114868164,9e-08,0.0,0.0,0.0,9e-08,0.0,0.0,0.0,9e-08
1560476574837566427,26331,1560476574833687488,base_link,-0.0131875724091,-0.000150423419424,-0.587697636538,-0.80897314308,1.0,0.0,0.0,0.0,1.0,0.0,0.0,0.0,1.0,0.001299223979,-0.00104341318365,-0.00111100089271,1.21846967915e-07,0.0,0.0,0.0,1.21846967915e-07,0.0,0.0,0.0,1.21846967915e-07,0.165197879076,0.182460516691,9.83111190796,9e-08,0.0,0.0,0.0,9e-08,0.0,0.0,0.0,9e-08
1560476574857272927,26332,1560476574853687488,base_link,-0.0131856507763,-0.000152551835274,-0.587690587477,-0.808978421972,1.0,0.0,0.0,0.0,1.0,0.0,0.0,0.0,1.0,0.000439697061665,0.000125889928313,-0.00153054855764,1.21846967915e-07,0.0,0.0,0.0,1.21846967915e-07,0.0,0.0,0.0,1.21846967915e-07,0.149885326624,0.183219522238,9.78464794159,9e-08,0.0,0.0,0.0,9e-08,0.0,0.0,0.0,9e-08
1560476574879558085,26333,1560476574873687488,base_link,-0.0131824713234,-0.000154236392126,-0.587681452148,-0.808985028491,1.0,0.0,0.0,0.0,1.0,0.0,0.0,0.0,1.0,0.00162328407168,-0.000935734249651,-0.00122184399515,1.21846967915e-07,0.0,0.0,0.0,1.21846967915e-07,0.0,0.0,0.0,1.21846967915e-07,0.154092624784,0.207377195358,9.77339553833,9e-08,0.0,0.0,0.0,9e-08,0.0,0.0,0.0,9e-08
1560476574897558581,26334,1560476574893687488,base_link,-0.0131761361252,-0.000157543602645,-0.587673644444,-0.808990813146,1.0,0.0,0.0,0.0,1.0,0.0,0.0,0.0,1.0,-0.000643528241199,0.000972286914475,-0.00290182465687,1.21846967915e-07,0.0,0.0,0.0,1.21846967915e-07,0.0,0.0,0.0,1.21846967915e-07,0.163372591138,0.201318949461,9.79833602905,9e-08,0.0,0.0,0.0,9e-08,0.0,0.0,0.0,9e-08
1560476574921311487,26335,1560476574917687488,base_link,-0.0131693294092,-0.000147793192659,-0.587668133744,-0.808994890853,1.0,0.0,0.0,0.0,1.0,0.0,0.0,0.0,1.0,0.000451747851912,0.000130404368974,-0.000355056603439,1.21846967915e-07,0.0,0.0,0.0,1.21846967915e-07,0.0,0.0,0.0,1.21846967915e-07,0.141227170825,0.166835039854,9.81984043121,9e-08,0.0,0.0,0.0,9e-08,0.0,0.0,0.0,9e-08
1560476574937391946,26336,1560476574933685440,base_link,-0.0131699570021,-0.000151352625725,-0.587670641481,-0.808993057466,1.0,0.0,0.0,0.0,1.0,0.0,0.0,0.0,1.0,3.39877078659e-05,-0.00114251452032,-0.000445050187409,1.21846967915e-07,0.0,0.0,0.0,1.21846967915e-07,0.0,0.0,0.0,1.21846967915e-07,0.150374993682,0.225044965744,9.79630947113,9e-08,0.0,0.0,0.0,9e-08,0.0,0.0,0.0,9e-08
1560476574960125068,26337,1560476574953685440,base_link,-0.0131679932224,-0.000147282820666,-0.587664825216,-0.808997356444,1.0,0.0,0.0,0.0,1.0,0.0,0.0,0.0,1.0,-0.000835426093545,-0.000730855274014,-0.00183095643297,1.21846967915e-07,0.0,0.0,0.0,1.21846967915e-07,0.0,0.0,0.0,1.21846967915e-07,0.165407687426,0.1795181036,9.84567928314,9e-08,0.0,0.0,0.0,9e-08,0.0,0.0,0.0,9e-08
1560476574978404218,26338,1560476574973685440,base_link,-0.0131632918731,-0.000142366785914,-0.58765715449,-0.809003004122,1.0,0.0,0.0,0.0,1.0,0.0,0.0,0.0,1.0,0.000735281908419,0.000756854540668,-0.00291781174019,1.21846967915e-07,0.0,0.0,0.0,1.21846967915e-07,0.0,0.0,0.0,1.21846967915e-07,0.167960733175,0.174696713686,9.81655883789,9e-08,0.0,0.0,0.0,9e-08,0.0,0.0,0.0,9e-08
1560476574997716753,26339,1560476574993685440,base_link,-0.0131625641814,-0.000143922926586,-0.587650621728,-0.809007766716,1.0,0.0,0.0,0.0,1.0,0.0,0.0,0.0,1.0,-0.000943283666857,0.000874064862728,-0.00130536546931,1.21846967915e-07,0.0,0.0,0.0,1.21846967915e-07,0.0,0.0,0.0,1.21846967915e-07,0.182647109032,0.199675068259,9.78359889984,9e-08,0.0,0.0,0.0,9e-08,0.0,0.0,0.0,9e-08
1560476575018744909,26340,1560476575013685440,base_link,-0.0131568170635,-0.000149486969134,-0.587643330323,-0.809013203659,1.0,0.0,0.0,0.0,1.0,0.0,0.0,0.0,1.0,0.00193800416309,0.000770664657466,-0.000704267993569,1.21846967915e-07,0.0,0.0,0.0,1.21846967915e-07,0.0,0.0,0.0,1.21846967915e-07,0.114402748644,0.217084780335,9.84740066528,9e-08,0.0,0.0,0.0,9e-08,0.0,0.0,0.0,9e-08
1560476575037537243,26341,1560476575033683392,base_link,-0.0131572569713,-0.000144517592277,-0.587641022784,-0.809014921143,1.0,0.0,0.0,0.0,1.0,0.0,0.0,0.0,1.0,-0.000207541685086,-0.000299931416521,-0.00194737524725,1.21846967915e-07,0.0,0.0,0.0,1.21846967915e-07,0.0,0.0,0.0,1.21846967915e-07,0.153848081827,0.215920388699,9.80452156067,9e-08,0.0,0.0,0.0,9e-08,0.0,0.0,0.0,9e-08
1560476575057736330,26342,1560476575053683392,base_link,-0.0131627018172,-0.000144873206311,-0.587628231215,-0.809024003789,1.0,0.0,0.0,0.0,1.0,0.0,0.0,0.0,1.0,9.87557359622e-05,-9.26281500142e-05,-0.00312286848202,1.21846967915e-07,0.0,0.0,0.0,1.21846967915e-07,0.0,0.0,0.0,1.21846967915e-07,0.144799441099,0.227174907923,9.7753610611,9e-08,0.0,0.0,0.0,9e-08,0.0,0.0,0.0,9e-08
1560476575081040204,26343,1560476575077683392,base_link,-0.0131563863754,-0.000142614398649,-0.587617683966,-0.809031769346,1.0,0.0,0.0,0.0,1.0,0.0,0.0,0.0,1.0,-9.90689877653e-05,0.000129151521833,-0.00195220729802,1.21846967915e-07,0.0,0.0,0.0,1.21846967915e-07,0.0,0.0,0.0,1.21846967915e-07,0.132888972759,0.207882300019,9.81004714966,9e-08,0.0,0.0,0.0,9e-08,0.0,0.0,0.0,9e-08
1560476575097679063,26344,1560476575093683392,base_link,-0.0131519095898,-0.00014206385544,-0.587611941458,-0.809036078861,1.0,0.0,0.0,0.0,1.0,0.0,0.0,0.0,1.0,-0.000211121630855,2.34900508076e-05,-0.00216055987403,1.21846967915e-07,0.0,0.0,0.0,1.21846967915e-07,0.0,0.0,0.0,1.21846967915e-07,0.125139638782,0.221852689981,9.75626945496,9e-08,0.0,0.0,0.0,9e-08,0.0,0.0,0.0,9e-08
1560476575121557603,26345,1560476575117683392,base_link,-0.0131506484771,-0.000138017099438,-0.587599761019,-0.809044887552,1.0,0.0,0.0,0.0,1.0,0.0,0.0,0.0,1.0,-0.000208259036299,0.000341561360983,-0.00184113765135,1.21846967915e-07,0.0,0.0,0.0,1.21846967915e-07,0.0,0.0,0.0,1.21846967915e-07,0.147878527641,0.194287121296,9.78316497803,9e-08,0.0,0.0,0.0,9e-08,0.0,0.0,0.0,9e-08
1560476575141236004,26346,1560476575138681344,base_link,-0.0131528183813,-0.000140582130297,-0.587598243732,-0.809046067664,1.0,0.0,0.0,0.0,1.0,0.0,0.0,0.0,1.0,0.000569423078559,-0.00124314066488,0.00060053402558,1.21846967915e-07,0.0,0.0,0.0,1.21846967915e-07,0.0,0.0,0.0,1.21846967915e-07,0.126814931631,0.221781253815,9.83975315094,9e-08,0.0,0.0,0.0,9e-08,0.0,0.0,0.0,9e-08
1560476575159092152,26347,1560476575154681344,base_link,-0.0131561222991,-0.000140162637445,-0.587595925656,-0.809047542804,1.0,0.0,0.0,0.0,1.0,0.0,0.0,0.0,1.0,0.000227749173064,-7.80924456194e-05,-0.000885209417902,1.21846967915e-07,0.0,0.0,0.0,1.21846967915e-07,0.0,0.0,0.0,1.21846967915e-07,0.166241630912,0.220288202167,9.81501102448,9e-08,0.0,0.0,0.0,9e-08,0.0,0.0,0.0,9e-08
1560476575178362515,26348,1560476575174681344,base_link,-0.0131508546015,-0.000144431981491,-0.587591826875,-0.809050630061,1.0,0.0,0.0,0.0,1.0,0.0,0.0,0.0,1.0,-0.00125664263032,0.000553099205717,-0.000759143033065,1.21846967915e-07,0.0,0.0,0.0,1.21846967915e-07,0.0,0.0,0.0,1.21846967915e-07,0.144253894687,0.239690884948,9.79678821564,9e-08,0.0,0.0,0.0,9e-08,0.0,0.0,0.0,9e-08
1560476575198326289,26349,1560476575194681344,base_link,-0.0131516349768,-0.000147936096818,-0.587579446238,-0.809059638949,1.0,0.0,0.0,0.0,1.0,0.0,0.0,0.0,1.0,0.000326041772496,-0.000405291793868,-0.00173887412529,1.21846967915e-07,0.0,0.0,0.0,1.21846967915e-07,0.0,0.0,0.0,1.21846967915e-07,0.144328221679,0.200342014432,9.84375858307,9e-08,0.0,0.0,0.0,9e-08,0.0,0.0,0.0,9e-08
1560476575219609323,26350,1560476575214681344,base_link,-0.0131509566759,-0.000148472152047,-0.587573566752,-0.809063916855,1.0,0.0,0.0,0.0,1.0,0.0,0.0,0.0,1.0,0.000434420071542,-0.000300044601317,-0.00110640225466,1.21846967915e-07,0.0,0.0,0.0,1.21846967915e-07,0.0,0.0,0.0,1.21846967915e-07,0.134203821421,0.184453397989,9.79691410065,9e-08,0.0,0.0,0.0,9e-08,0.0,0.0,0.0,9e-08
1560476575237604658,26351,1560476575234679296,base_link,-0.0131613959235,-0.00014635295582,-0.587563409362,-0.809071123966,1.0,0.0,0.0,0.0,1.0,0.0,0.0,0.0,1.0,0.00128121848684,-0.000832170946524,-0.00184965168592,1.21846967915e-07,0.0,0.0,0.0,1.21846967915e-07,0.0,0.0,0.0,1.21846967915e-07,0.149774104357,0.198804825544,9.8185710907,9e-08,0.0,0.0,0.0,9e-08,0.0,0.0,0.0,9e-08
1560476575261023402,26352,1560476575258679296,base_link,-0.0131599484427,-0.000146796814819,-0.587554168665,-0.809077835851,1.0,0.0,0.0,0.0,1.0,0.0,0.0,0.0,1.0,0.000315394456265,0.00194411771372,-0.00142930448055,1.21846967915e-07,0.0,0.0,0.0,1.21846967915e-07,0.0,0.0,0.0,1.21846967915e-07,0.135768726468,0.185977160931,9.80135631561,9e-08,0.0,0.0,0.0,9e-08,0.0,0.0,0.0,9e-08
1560476575279355624,26353,1560476575274679296,base_link,-0.0131625187419,-0.00015103191455,-0.587551281606,-0.809079964267,1.0,0.0,0.0,0.0,1.0,0.0,0.0,0.0,1.0,0.00223752437159,0.000868751842063,-0.00187612720765,1.21846967915e-07,0.0,0.0,0.0,1.21846967915e-07,0.0,0.0,0.0,1.21846967915e-07,0.175044447184,0.170591518283,9.79161643982,9e-08,0.0,0.0,0.0,9e-08,0.0,0.0,0.0,9e-08
1560476575298293400,26354,1560476575294679296,base_link,-0.0131570495297,-0.000154123781015,-0.587543600343,-0.809085622482,1.0,0.0,0.0,0.0,1.0,0.0,0.0,0.0,1.0,0.00033879376133,0.000338337180438,-0.000363724539056,1.21846967915e-07,0.0,0.0,0.0,1.21846967915e-07,0.0,0.0,0.0,1.21846967915e-07,0.152547106147,0.195633113384,9.77174663544,9e-08,0.0,0.0,0.0,9e-08,0.0,0.0,0.0,9e-08
1560476575318615345,26355,1560476575314679296,base_link,-0.0131516441964,-0.000148310150098,-0.587535560832,-0.809091554651,1.0,0.0,0.0,0.0,1.0,0.0,0.0,0.0,1.0,-0.000208199286135,0.000339854625054,-0.00141172681469,1.21846967915e-07,0.0,0.0,0.0,1.21846967915e-07,0.0,0.0,0.0,1.21846967915e-07,0.15501357615,0.192945331335,9.83575820923,9e-08,0.0,0.0,0.0,9e-08,0.0,0.0,0.0,9e-08
1560476575338368202,26356,1560476575334677504,base_link,-0.0131504278647,-0.000149002280376,-0.587527226293,-0.80909761326,1.0,0.0,0.0,0.0,1.0,0.0,0.0,0.0,1.0,0.000317265134072,0.000135405454785,-0.00152464280836,1.21846967915e-07,0.0,0.0,0.0,1.21846967915e-07,0.0,0.0,0.0,1.21846967915e-07,0.178052738309,0.167594343424,9.8036031723,9e-08,0.0,0.0,0.0,9e-08,0.0,0.0,0.0,9e-08
1560476575357540043,26357,1560476575354677504,base_link,-0.0131514011935,-0.00014490086518,-0.587522737653,-0.8091007532,1.0,0.0,0.0,0.0,1.0,0.0,0.0,0.0,1.0,-0.000819395005237,-0.000716464244761,0.000519038410857,1.21846967915e-07,0.0,0.0,0.0,1.21846967915e-07,0.0,0.0,0.0,1.21846967915e-07,0.160885095596,0.211741745472,9.77708435059,9e-08,0.0,0.0,0.0,9e-08,0.0,0.0,0.0,9e-08
1560476575378268051,26358,1560476575374677504,base_link,-0.0131471068247,-0.000146958816768,-0.587517237489,-0.809104904665,1.0,0.0,0.0,0.0,1.0,0.0,0.0,0.0,1.0,0.000438604794908,0.00098012574017,-0.00100179493893,1.21846967915e-07,0.0,0.0,0.0,1.21846967915e-07,0.0,0.0,0.0,1.21846967915e-07,0.192302569747,0.195684909821,9.80637168884,9e-08,0.0,0.0,0.0,9e-08,0.0,0.0,0.0,9e-08
1560476575398456553,26359,1560476575394677504,base_link,-0.0131344713313,-0.000152485980823,-0.587509977695,-0.809110394292,1.0,0.0,0.0,0.0,1.0,0.0,0.0,0.0,1.0,0.000561938446481,-0.000405214319471,-0.000246500596404,1.21846967915e-07,0.0,0.0,0.0,1.21846967915e-07,0.0,0.0,0.0,1.21846967915e-07,0.150518149137,0.209621161222,9.81782341003,9e-08,0.0,0.0,0.0,9e-08,0.0,0.0,0.0,9e-08
1560476575421532809,26360,1560476575418677504,base_link,-0.0131382658647,-0.000152495200446,-0.587498239797,-0.809118760441,1.0,0.0,0.0,0.0,1.0,0.0,0.0,0.0,1.0,0.000743005308323,-0.000302075379295,-0.0020590336062,1.21846967915e-07,0.0,0.0,0.0,1.21846967915e-07,0.0,0.0,0.0,1.21846967915e-07,0.158952772617,0.175294116139,9.81269264221,9e-08,0.0,0.0,0.0,9e-08,0.0,0.0,0.0,9e-08
1560476575441585691,26361,1560476575438675456,base_link,-0.0131429138719,-0.000160288416154,-0.587491538449,-0.809123523035,1.0,0.0,0.0,0.0,1.0,0.0,0.0,0.0,1.0,0.00257767527364,0.000345749984263,-0.000271236407571,1.21846967915e-07,0.0,0.0,0.0,1.21846967915e-07,0.0,0.0,0.0,1.21846967915e-07,0.163947716355,0.20028206706,9.79346561432,9e-08,0.0,0.0,0.0,9e-08,0.0,0.0,0.0,9e-08
1560476575457964855,26362,1560476575454675456,base_link,-0.0131481446909,-0.000154150122795,-0.587482782441,-0.809129918819,1.0,0.0,0.0,0.0,1.0,0.0,0.0,0.0,1.0,0.000971189583652,-0.000935090938583,-0.000674359500408,1.21846967915e-07,0.0,0.0,0.0,1.21846967915e-07,0.0,0.0,0.0,1.21846967915e-07,0.155198678374,0.217143535614,9.81769275665,9e-08,0.0,0.0,0.0,9e-08,0.0,0.0,0.0,9e-08
1560476575479348687,26363,1560476575474675456,base_link,-0.0131377574684,-0.000149958487002,-0.587476734368,-0.809134365312,1.0,0.0,0.0,0.0,1.0,0.0,0.0,0.0,1.0,-0.000509070290718,0.000237537155044,-0.000450338236988,1.21846967915e-07,0.0,0.0,0.0,1.21846967915e-07,0.0,0.0,0.0,1.21846967915e-07,0.149435475469,0.202231660485,9.77699756622,9e-08,0.0,0.0,0.0,9e-08,0.0,0.0,0.0,9e-08
1560476575500999625,26364,1560476575498675456,base_link,-0.0131359563491,-0.00014668881352,-0.587468115338,-0.809140708413,1.0,0.0,0.0,0.0,1.0,0.0,0.0,0.0,1.0,0.0017063471023,1.97109766304e-05,-0.00154020823538,1.21846967915e-07,0.0,0.0,0.0,1.21846967915e-07,0.0,0.0,0.0,1.21846967915e-07,0.157168090343,0.202437102795,9.81877040863,9e-08,0.0,0.0,0.0,9e-08,0.0,0.0,0.0,9e-08
1560476575519507363,26365,1560476575514675456,base_link,-0.013134785457,-0.000143493555567,-0.5874609293,-0.809145955695,1.0,0.0,0.0,0.0,1.0,0.0,0.0,0.0,1.0,-0.00116125284694,-0.000726966070943,-0.000640957267024,1.21846967915e-07,0.0,0.0,0.0,1.21846967915e-07,0.0,0.0,0.0,1.21846967915e-07,0.127919912338,0.170618847013,9.74733638763,9e-08,0.0,0.0,0.0,9e-08,0.0,0.0,0.0,9e-08
1560476575538322029,26366,1560476575534673408,base_link,-0.0131350864118,-0.000147864315466,-0.587456788372,-0.809148916511,1.0,0.0,0.0,0.0,1.0,0.0,0.0,0.0,1.0,0.00107891147491,-0.000931737187784,-0.000457659363747,1.21846967915e-07,0.0,0.0,0.0,1.21846967915e-07,0.0,0.0,0.0,1.21846967915e-07,0.185294449329,0.193224564195,9.78604507446,9e-08,0.0,0.0,0.0,9e-08,0.0,0.0,0.0,9e-08
1560476575557166329,26367,1560476575554673408,base_link,-0.0131446708686,-0.000144011830095,-0.587445176915,-0.809157240514,1.0,0.0,0.0,0.0,1.0,0.0,0.0,0.0,1.0,0.000538896012586,-8.39853018988e-05,-0.00141651369631,1.21846967915e-07,0.0,0.0,0.0,1.21846967915e-07,0.0,0.0,0.0,1.21846967915e-07,0.150768876076,0.213831931353,9.80998516083,9e-08,0.0,0.0,0.0,9e-08,0.0,0.0,0.0,9e-08
1560476575578181154,26368,1560476575574673408,base_link,-0.0131339214466,-0.000139105014966,-0.587431626703,-0.809167166097,1.0,0.0,0.0,0.0,1.0,0.0,0.0,0.0,1.0,-0.000126452127006,0.000438095099526,-0.0030091656372,1.21846967915e-07,0.0,0.0,0.0,1.21846967915e-07,0.0,0.0,0.0,1.21846967915e-07,0.123968169093,0.184759050608,9.78629207611,9e-08,0.0,0.0,0.0,9e-08,0.0,0.0,0.0,9e-08
1560476575599246651,26369,1560476575594673408,base_link,-0.0131287894093,-0.000142811962001,-0.587413029407,-0.809180874359,1.0,0.0,0.0,0.0,1.0,0.0,0.0,0.0,1.0,-0.000751125451643,0.000227369033382,-0.0024664408993,1.21846967915e-07,0.0,0.0,0.0,1.21846967915e-07,0.0,0.0,0.0,1.21846967915e-07,0.138463884592,0.229009926319,9.84019088745,9e-08,0.0,0.0,0.0,9e-08,0.0,0.0,0.0,9e-08
