%time,field.header.seq,field.header.stamp,field.header.frame_id,field.orientation.x,field.orientation.y,field.orientation.z,field.orientation.w,field.orientation_covariance0,field.orientation_covariance1,field.orientation_covariance2,field.orientation_covariance3,field.orientation_covariance4,field.orientation_covariance5,field.orientation_covariance6,field.orientation_covariance7,field.orientation_covariance8,field.angular_velocity.x,field.angular_velocity.y,field.angular_velocity.z,field.angular_velocity_covariance0,field.angular_velocity_covariance1,field.angular_velocity_covariance2,field.angular_velocity_covariance3,field.angular_velocity_covariance4,field.angular_velocity_covariance5,field.angular_velocity_covariance6,field.angular_velocity_covariance7,field.angular_velocity_covariance8,field.linear_acceleration.x,field.linear_acceleration.y,field.linear_acceleration.z,field.linear_acceleration_covariance0,field.linear_acceleration_covariance1,field.linear_acceleration_covariance2,field.linear_acceleration_covariance3,field.linear_acceleration_covariance4,field.linear_acceleration_covariance5,field.linear_acceleration_covariance6,field.linear_acceleration_covariance7,field.linear_acceleration_covariance8
1560469167618806882,11694,1560469167580070016,base_link,0.00215075392647,-0.000862477714449,-0.599958755362,-0.800027632534,1.0,0.0,0.0,0.0,1.0,0.0,0.0,0.0,1.0,0.00132273533382,0.00109575304668,0.00106417003553,1.21846967915e-07,0.0,0.0,0.0,1.21846967915e-07,0.0,0.0,0.0,1.21846967915e-07,-0.0491808876395,-0.0151206664741,9.77355957031,9e-08,0.0,0.0,0.0,9e-08,0.0,0.0,0.0,9e-08
1560469167618847230,11695,1560469167596070016,base_link,0.0021483438182,-0.000868871029169,-0.599968649335,-0.800020267372,1.0,0.0,0.0,0.0,1.0,0.0,0.0,0.0,1.0,-0.000556291255634,-0.000806540017948,0.00280461017974,1.21846967915e-07,0.0,0.0,0.0,1.21846967915e-07,0.0,0.0,0.0,1.21846967915e-07,-0.0116227902472,0.000818621367217,9.77765846252,9e-08,0.0,0.0,0.0,9e-08,0.0,0.0,0.0,9e-08
1560469167622466730,11696,1560469167620067968,base_link,0.00214727397149,-0.000869511175589,-0.599977742517,-0.800013450119,1.0,0.0,0.0,0.0,1.0,0.0,0.0,0.0,1.0,6.39142526779e-05,0.000251285935519,0.00162042037118,1.21846967915e-07,0.0,0.0,0.0,1.21846967915e-07,0.0,0.0,0.0,1.21846967915e-07,-0.0411050878465,-0.00631717965007,9.77728271484,9e-08,0.0,0.0,0.0,9e-08,0.0,0.0,0.0,9e-08
1560469167643355876,11697,1560469167640067968,base_link,0.00214727557669,-0.000872305750368,-0.59998440172,-0.800008476791,1.0,0.0,0.0,0.0,1.0,0.0,0.0,0.0,1.0,-5.2146759117e-05,0.00152292253915,0.000980980927125,1.21846967915e-07,0.0,0.0,0.0,1.21846967915e-07,0.0,0.0,0.0,1.21846967915e-07,-0.00325793772936,-0.0112931877375,9.82948875427,9e-08,0.0,0.0,0.0,9e-08,0.0,0.0,0.0,9e-08
1560469167662228363,11698,1560469167656067968,base_link,0.00214590296414,-0.000873508787707,-0.599991060922,-0.800003334876,1.0,0.0,0.0,0.0,1.0,0.0,0.0,0.0,1.0,-0.000577540078666,-0.0011336664902,0.00121038325597,1.21846967915e-07,0.0,0.0,0.0,1.21846967915e-07,0.0,0.0,0.0,1.21846967915e-07,-0.0194645598531,-0.0350686609745,9.83024787903,9e-08,0.0,0.0,0.0,9e-08,0.0,0.0,0.0,9e-08
1560469167681290895,11699,1560469167676067968,base_link,0.00214270128538,-0.00087494589646,-0.599999363851,-0.799997139289,1.0,0.0,0.0,0.0,1.0,0.0,0.0,0.0,1.0,-0.0021845838055,-0.000289087707642,0.000267834780971,1.21846967915e-07,0.0,0.0,0.0,1.21846967915e-07,0.0,0.0,0.0,1.21846967915e-07,-0.0306740030646,-0.00950850173831,9.81653118134,9e-08,0.0,0.0,0.0,9e-08,0.0,0.0,0.0,9e-08
1560469167702965180,11700,1560469167700067968,base_link,0.00214017329765,-0.000870782413444,-0.600010300958,-0.79998889958,1.0,0.0,0.0,0.0,1.0,0.0,0.0,0.0,1.0,0.000594738405198,-0.0010284576565,0.00140707939863,1.21846967915e-07,0.0,0.0,0.0,1.21846967915e-07,0.0,0.0,0.0,1.21846967915e-07,-0.00647925212979,-0.0453529022634,9.76853752136,9e-08,0.0,0.0,0.0,9e-08,0.0,0.0,0.0,9e-08
1560469167722866203,11701,1560469167720064128,base_link,0.00213624964831,-0.000873567439327,-0.600023513995,-0.799979142585,1.0,0.0,0.0,0.0,1.0,0.0,0.0,0.0,1.0,0.000279161322396,0.000568152114283,0.00140085956082,1.21846967915e-07,0.0,0.0,0.0,1.21846967915e-07,0.0,0.0,0.0,1.21846967915e-07,-0.0262182503939,-0.00700942799449,9.8254442215,9e-08,0.0,0.0,0.0,9e-08,0.0,0.0,0.0,9e-08
1560469167740554135,11702,1560469167736064128,base_link,0.00214469708683,-0.000872171036857,-0.600028582153,-0.799975170244,1.0,0.0,0.0,0.0,1.0,0.0,0.0,0.0,1.0,-0.00164469110314,0.00109339202754,0.00100035313517,1.21846967915e-07,0.0,0.0,0.0,1.21846967915e-07,0.0,0.0,0.0,1.21846967915e-07,-0.0826523452997,-0.0405603013933,9.77958869934,9e-08,0.0,0.0,0.0,9e-08,0.0,0.0,0.0,9e-08
1560469167763359922,11703,1560469167756064128,base_link,0.00213901561756,-0.000873848555514,-0.6000384972,-0.799967784009,1.0,0.0,0.0,0.0,1.0,0.0,0.0,0.0,1.0,0.000165337027283,-0.000175091845449,0.00130444159731,1.21846967915e-07,0.0,0.0,0.0,1.21846967915e-07,0.0,0.0,0.0,1.21846967915e-07,-0.0485362112522,-0.0137978978455,9.79880809784,9e-08,0.0,0.0,0.0,9e-08,0.0,0.0,0.0,9e-08
1560469167782721942,11704,1560469167780064128,base_link,0.00214226405299,-0.000878307725014,-0.600056799469,-0.799954117893,1.0,0.0,0.0,0.0,1.0,0.0,0.0,0.0,1.0,-0.000467242702143,-0.00124129746109,0.00163341243751,1.21846967915e-07,0.0,0.0,0.0,1.21846967915e-07,0.0,0.0,0.0,1.21846967915e-07,-0.0582097321749,-0.0429696105421,9.78499889374,9e-08,0.0,0.0,0.0,9e-08,0.0,0.0,0.0,9e-08
1560469167803968281,11705,1560469167800064128,base_link,0.00213728718519,-0.00087721116609,-0.600060107996,-0.799951652303,1.0,0.0,0.0,0.0,1.0,0.0,0.0,0.0,1.0,0.000281646061921,-0.00113335577771,0.0014139469713,1.21846967915e-07,0.0,0.0,0.0,1.21846967915e-07,0.0,0.0,0.0,1.21846967915e-07,-0.033515676856,-0.0356353521347,9.81573867798,9e-08,0.0,0.0,0.0,9e-08,0.0,0.0,0.0,9e-08
1560469167822960877,11706,1560469167820061312,base_link,0.00213719198434,-0.000887607649397,-0.600064923274,-0.799947932843,1.0,0.0,0.0,0.0,1.0,0.0,0.0,0.0,1.0,0.000595398480073,0.000247814692557,0.00140065676533,1.21846967915e-07,0.0,0.0,0.0,1.21846967915e-07,0.0,0.0,0.0,1.21846967915e-07,-0.035533644259,-0.019550498575,9.80853748322,9e-08,0.0,0.0,0.0,9e-08,0.0,0.0,0.0,9e-08
1560469167843542249,11707,1560469167840061312,base_link,0.00212992305238,-0.000889688896996,-0.600075828771,-0.799939893332,1.0,0.0,0.0,0.0,1.0,0.0,0.0,0.0,1.0,-0.00131372222677,-0.000816177052911,0.00206943368539,1.21846967915e-07,0.0,0.0,0.0,1.21846967915e-07,0.0,0.0,0.0,1.21846967915e-07,-0.0187350995839,-0.0334158465266,9.78500080109,9e-08,0.0,0.0,0.0,9e-08,0.0,0.0,0.0,9e-08
1560469167863137476,11708,1560469167860061312,base_link,0.00212670408683,-0.000888782739753,-0.600090000648,-0.799929177496,1.0,0.0,0.0,0.0,1.0,0.0,0.0,0.0,1.0,-0.000883947941475,-6.73031900078e-05,0.00206393841654,1.21846967915e-07,0.0,0.0,0.0,1.21846967915e-07,0.0,0.0,0.0,1.21846967915e-07,-0.0416167490184,-0.0337585359812,9.81726837158,9e-08,0.0,0.0,0.0,9e-08,0.0,0.0,0.0,9e-08
1560469167880825944,11709,1560469167876061312,base_link,0.00211431937533,-0.000887093038023,-0.600100389847,-0.799921401402,1.0,0.0,0.0,0.0,1.0,0.0,0.0,0.0,1.0,0.0025216776412,-0.000499526795465,0.00105663260911,1.21846967915e-07,0.0,0.0,0.0,1.21846967915e-07,0.0,0.0,0.0,1.21846967915e-07,-0.0236968584359,-0.0193167366087,9.80599117279,9e-08,0.0,0.0,0.0,9e-08,0.0,0.0,0.0,9e-08
1560469167903872875,11710,1560469167900061312,base_link,0.00211165383412,-0.000890124729983,-0.600112032914,-0.799912624321,1.0,0.0,0.0,0.0,1.0,0.0,0.0,0.0,1.0,-0.00111138843931,-0.00103181740269,0.00111044535879,1.21846967915e-07,0.0,0.0,0.0,1.21846967915e-07,0.0,0.0,0.0,1.21846967915e-07,-0.0276163294911,0.0122485160828,9.79465579987,9e-08,0.0,0.0,0.0,9e-08,0.0,0.0,0.0,9e-08
1560469167923546869,11711,1560469167920057472,base_link,0.00210619104279,-0.000883096578358,-0.600119492906,-0.799907187378,1.0,0.0,0.0,0.0,1.0,0.0,0.0,0.0,1.0,0.000797019107267,-0.00220522843301,0.000558766885661,1.21846967915e-07,0.0,0.0,0.0,1.21846967915e-07,0.0,0.0,0.0,1.21846967915e-07,-0.0608325973153,-0.0197374634445,9.76867389679,9e-08,0.0,0.0,0.0,9e-08,0.0,0.0,0.0,9e-08
1560469167943351599,11712,1560469167941057472,base_link,0.00210040309511,-0.000879882222614,-0.600132590039,-0.799897377699,1.0,0.0,0.0,0.0,1.0,0.0,0.0,0.0,1.0,-3.17122030538e-05,0.000216849555727,0.00204824004322,1.21846967915e-07,0.0,0.0,0.0,1.21846967915e-07,0.0,0.0,0.0,1.21846967915e-07,-0.0521137043834,-0.0237620174885,9.83897399902,9e-08,0.0,0.0,0.0,9e-08,0.0,0.0,0.0,9e-08
1560469167960497264,11713,1560469167958057472,base_link,0.00211066539997,-0.000869889921,-0.600141187996,-0.79989080279,1.0,0.0,0.0,0.0,1.0,0.0,0.0,0.0,1.0,-0.000691349967383,0.000773058796767,0.000674840644933,1.21846967915e-07,0.0,0.0,0.0,1.21846967915e-07,0.0,0.0,0.0,1.21846967915e-07,-0.0749954879284,-0.036762509495,9.80041980743,9e-08,0.0,0.0,0.0,9e-08,0.0,0.0,0.0,9e-08
1560469167981362367,11714,1560469167978057472,base_link,0.00210600261674,-0.00086594552751,-0.600151672025,-0.799883100454,1.0,0.0,0.0,0.0,1.0,0.0,0.0,0.0,1.0,0.00207914225757,0.000768570054788,0.000520721892826,1.21846967915e-07,0.0,0.0,0.0,1.21846967915e-07,0.0,0.0,0.0,1.21846967915e-07,-0.0351707153022,0.00545506551862,9.84145355225,9e-08,0.0,0.0,0.0,9e-08,0.0,0.0,0.0,9e-08
1560469168000547491,11715,1560469167998057472,base_link,0.00210516408379,-0.000862938819082,-0.600157783318,-0.799878506447,1.0,0.0,0.0,0.0,1.0,0.0,0.0,0.0,1.0,6.27523404546e-05,0.000563431007322,0.00108754681423,1.21846967915e-07,0.0,0.0,0.0,1.21846967915e-07,0.0,0.0,0.0,1.21846967915e-07,-0.0358587168157,-0.0380703136325,9.815782547,9e-08,0.0,0.0,0.0,9e-08,0.0,0.0,0.0,9e-08
1560469168021231467,11716,1560469168018055168,base_link,0.00210337786413,-0.000862861028512,-0.600174125758,-0.79986612581,1.0,0.0,0.0,0.0,1.0,0.0,0.0,0.0,1.0,0.000497391971294,0.00120719545521,0.00203644856811,1.21846967915e-07,0.0,0.0,0.0,1.21846967915e-07,0.0,0.0,0.0,1.21846967915e-07,-0.0306568965316,-0.016638752073,9.81791496277,9e-08,0.0,0.0,0.0,9e-08,0.0,0.0,0.0,9e-08
1560469168040773014,11717,1560469168038055168,base_link,0.00210609300198,-0.000859307892778,-0.600182744789,-0.79985978271,1.0,0.0,0.0,0.0,1.0,0.0,0.0,0.0,1.0,0.000368942477508,0.00151808001101,0.000331779301632,1.21846967915e-07,0.0,0.0,0.0,1.21846967915e-07,0.0,0.0,0.0,1.21846967915e-07,-0.022517580539,-0.0166118443012,9.81649780273,9e-08,0.0,0.0,0.0,9e-08,0.0,0.0,0.0,9e-08
1560469168060930809,11718,1560469168058055168,base_link,0.00210601068391,-0.000855170257634,-0.600190331221,-0.799854050738,1.0,0.0,0.0,0.0,1.0,0.0,0.0,0.0,1.0,0.000905970635358,-0.000396167451981,0.000761985545978,1.21846967915e-07,0.0,0.0,0.0,1.21846967915e-07,0.0,0.0,0.0,1.21846967915e-07,-0.0200144536793,-0.0429140366614,9.79392051697,9e-08,0.0,0.0,0.0,9e-08,0.0,0.0,0.0,9e-08
1560469168080341755,11719,1560469168078055168,base_link,0.00211834427589,-0.000854547562643,-0.600199824799,-0.79984683309,1.0,0.0,0.0,0.0,1.0,0.0,0.0,0.0,1.0,-0.00110747455619,0.00109407294076,0.00120749964844,1.21846967915e-07,0.0,0.0,0.0,1.21846967915e-07,0.0,0.0,0.0,1.21846967915e-07,-0.0176380500197,-0.0379813238978,9.8299779892,9e-08,0.0,0.0,0.0,9e-08,0.0,0.0,0.0,9e-08
1560469168100950537,11720,1560469168098055168,base_link,0.00210679385797,-0.000853684087316,-0.600212005238,-0.799837687224,1.0,0.0,0.0,0.0,1.0,0.0,0.0,0.0,1.0,0.00197148672305,-0.00135500403121,0.000859525520355,1.21846967915e-07,0.0,0.0,0.0,1.21846967915e-07,0.0,0.0,0.0,1.21846967915e-07,-0.0175111964345,-0.0152857787907,9.79983329773,9e-08,0.0,0.0,0.0,9e-08,0.0,0.0,0.0,9e-08
1560469168120930451,11721,1560469168118052864,base_link,0.00210809958709,-0.000862271672336,-0.600216525488,-0.79983443138,1.0,0.0,0.0,0.0,1.0,0.0,0.0,0.0,1.0,-0.000591117481235,0.000451786327176,0.000244707800448,1.21846967915e-07,0.0,0.0,0.0,1.21846967915e-07,0.0,0.0,0.0,1.21846967915e-07,-0.0311371982098,-0.021238271147,9.85428333282,9e-08,0.0,0.0,0.0,9e-08,0.0,0.0,0.0,9e-08
1560469168141180997,11722,1560469168138052864,base_link,0.00210747594544,-0.000853128111115,-0.600222173165,-0.799830216695,1.0,0.0,0.0,0.0,1.0,0.0,0.0,0.0,1.0,0.000366703927284,-0.000189138518181,0.00023451911693,1.21846967915e-07,0.0,0.0,0.0,1.21846967915e-07,0.0,0.0,0.0,1.21846967915e-07,-0.0128947533667,0.00241910666227,9.83641624451,9e-08,0.0,0.0,0.0,9e-08,0.0,0.0,0.0,9e-08
1560469168160747480,11723,1560469168158052864,base_link,0.00210463292648,-0.000850974094347,-0.600231614059,-0.799823136025,1.0,0.0,0.0,0.0,1.0,0.0,0.0,0.0,1.0,-0.000588496332057,0.000244119495619,0.000462245283416,1.21846967915e-07,0.0,0.0,0.0,1.21846967915e-07,0.0,0.0,0.0,1.21846967915e-07,-0.00445437058806,-0.00643575564027,9.78995704651,9e-08,0.0,0.0,0.0,9e-08,0.0,0.0,0.0,9e-08
1560469168181805885,11724,1560469168178052864,base_link,0.00211095483028,-0.00085361761548,-0.600240865293,-0.799816160721,1.0,0.0,0.0,0.0,1.0,0.0,0.0,0.0,1.0,0.000466912984848,0.00140703492798,1.1955446098e-05,1.21846967915e-07,0.0,0.0,0.0,1.21846967915e-07,0.0,0.0,0.0,1.21846967915e-07,-0.0287232920527,-0.0460460521281,9.75620174408,9e-08,0.0,0.0,0.0,9e-08,0.0,0.0,0.0,9e-08
1560469168200717983,11725,1560469168198052864,base_link,0.00211627307109,-0.000846404412847,-0.60025177079,-0.799807868329,1.0,0.0,0.0,0.0,1.0,0.0,0.0,0.0,1.0,-0.00186833832413,-0.00125152454711,0.000378713244572,1.21846967915e-07,0.0,0.0,0.0,1.21846967915e-07,0.0,0.0,0.0,1.21846967915e-07,-0.0375836715102,-0.0496476888657,9.7986240387,9e-08,0.0,0.0,0.0,9e-08,0.0,0.0,0.0,9e-08
1560469168221439346,11726,1560469168218047744,base_link,0.00212178171359,-0.000846492410857,-0.600258977901,-0.799802431386,1.0,0.0,0.0,0.0,1.0,0.0,0.0,0.0,1.0,-0.001209781738,0.000137902970891,0.000889306713361,1.21846967915e-07,0.0,0.0,0.0,1.21846967915e-07,0.0,0.0,0.0,1.21846967915e-07,-0.012875918299,-0.0215113945305,9.80568885803,9e-08,0.0,0.0,0.0,9e-08,0.0,0.0,0.0,9e-08
1560469168241632598,11727,1560469168238047744,base_link,0.00211495087836,-0.000844358479697,-0.600268682213,-0.799795171591,1.0,0.0,0.0,0.0,1.0,0.0,0.0,0.0,1.0,-0.00079921237193,-0.000714451191016,0.000890846713446,1.21846967915e-07,0.0,0.0,0.0,1.21846967915e-07,0.0,0.0,0.0,1.21846967915e-07,-0.0125117897987,0.00284776464105,9.74348068237,9e-08,0.0,0.0,0.0,9e-08,0.0,0.0,0.0,9e-08
1560469168261315206,11728,1560469168258047744,base_link,0.0021157255325,-0.000833788963821,-0.600273276219,-0.79979184199,1.0,0.0,0.0,0.0,1.0,0.0,0.0,0.0,1.0,-0.00100368447602,-0.00177645450458,0.00101018568967,1.21846967915e-07,0.0,0.0,0.0,1.21846967915e-07,0.0,0.0,0.0,1.21846967915e-07,-0.00510564818978,-0.0241004601121,9.76977920532,9e-08,0.0,0.0,0.0,9e-08,0.0,0.0,0.0,9e-08
1560469168280527488,11729,1560469168278047744,base_link,0.00211710254906,-0.000840148857407,-0.600284308157,-0.799783507451,1.0,0.0,0.0,0.0,1.0,0.0,0.0,0.0,1.0,-0.00175001064781,-0.000932014605496,0.0010098653147,1.21846967915e-07,0.0,0.0,0.0,1.21846967915e-07,0.0,0.0,0.0,1.21846967915e-07,-0.0277594439685,-0.00530268996954,9.82185745239,9e-08,0.0,0.0,0.0,9e-08,0.0,0.0,0.0,9e-08
1560469168302755520,11730,1560469168298047744,base_link,0.00210776360592,-0.000834309666732,-0.600293222215,-0.799776869322,1.0,0.0,0.0,0.0,1.0,0.0,0.0,0.0,1.0,-0.00110666605178,-0.00146036443766,0.00153889460489,1.21846967915e-07,0.0,0.0,0.0,1.21846967915e-07,0.0,0.0,0.0,1.21846967915e-07,-0.0337974056602,-0.0448739603162,9.80044078827,9e-08,0.0,0.0,0.0,9e-08,0.0,0.0,0.0,9e-08
1560469168320823313,11731,1560469168318045696,base_link,0.00210764333923,-0.000834317980856,-0.600301725342,-0.799770389244,1.0,0.0,0.0,0.0,1.0,0.0,0.0,0.0,1.0,-0.00154627801385,-0.00135990080889,0.000480211339891,1.21846967915e-07,0.0,0.0,0.0,1.21846967915e-07,0.0,0.0,0.0,1.21846967915e-07,-0.0416454263031,-0.00673935562372,9.81865310669,9e-08,0.0,0.0,0.0,9e-08,0.0,0.0,0.0,9e-08
1560469168340963587,11732,1560469168338045696,base_link,0.00211437815043,-0.000831541022143,-0.600312736206,-0.799762160072,1.0,0.0,0.0,0.0,1.0,0.0,0.0,0.0,1.0,-0.00174069148488,0.00183480326086,0.00185048952699,1.21846967915e-07,0.0,0.0,0.0,1.21846967915e-07,0.0,0.0,0.0,1.21846967915e-07,-0.0667413324118,-0.00959275662899,9.79480934143,9e-08,0.0,0.0,0.0,9e-08,0.0,0.0,0.0,9e-08
1560469168360810239,11733,1560469168358045696,base_link,0.00212123849668,-0.000831862433022,-0.600316771767,-0.799759051742,1.0,0.0,0.0,0.0,1.0,0.0,0.0,0.0,1.0,-0.000822201254778,0.000973520451225,-0.00103107222822,1.21846967915e-07,0.0,0.0,0.0,1.21846967915e-07,0.0,0.0,0.0,1.21846967915e-07,-0.0324160344899,-0.0320285670459,9.7977104187,9e-08,0.0,0.0,0.0,9e-08,0.0,0.0,0.0,9e-08
1560469168381508728,11734,1560469168378045696,base_link,0.0021156214413,-0.000833315182207,-0.600321492214,-0.7997555957,1.0,0.0,0.0,0.0,1.0,0.0,0.0,0.0,1.0,0.00143338926136,-0.000508331519086,0.000434327404946,1.21846967915e-07,0.0,0.0,0.0,1.21846967915e-07,0.0,0.0,0.0,1.21846967915e-07,-0.0502016060054,-0.0228922590613,9.82077407837,9e-08,0.0,0.0,0.0,9e-08,0.0,0.0,0.0,9e-08
1560469168400784502,11735,1560469168398045696,base_link,0.00212086592513,-0.00083174010838,-0.600331670678,-0.799747861753,1.0,0.0,0.0,0.0,1.0,0.0,0.0,0.0,1.0,-0.00111178262159,0.000451735977549,0.0011029682355,1.21846967915e-07,0.0,0.0,0.0,1.21846967915e-07,0.0,0.0,0.0,1.21846967915e-07,-0.0342537201941,-0.0438952557743,9.80088806152,9e-08,0.0,0.0,0.0,9e-08,0.0,0.0,0.0,9e-08
1560469168421067657,11736,1560469168418043648,base_link,0.00212338938537,-0.000832354612724,-0.60033682313,-0.799744142294,1.0,0.0,0.0,0.0,1.0,0.0,0.0,0.0,1.0,-0.000907668145373,-0.000295839621685,0.000466521538328,1.21846967915e-07,0.0,0.0,0.0,1.21846967915e-07,0.0,0.0,0.0,1.21846967915e-07,-0.0574095360935,-0.0186360813677,9.81512832642,9e-08,0.0,0.0,0.0,9e-08,0.0,0.0,0.0,9e-08
1560469168441784808,11737,1560469168438043648,base_link,0.00212499672787,-0.000839308019548,-0.600345010155,-0.799737894024,1.0,0.0,0.0,0.0,1.0,0.0,0.0,0.0,1.0,-0.00144855317194,0.00193578400649,-0.000174961227458,1.21846967915e-07,0.0,0.0,0.0,1.21846967915e-07,0.0,0.0,0.0,1.21846967915e-07,-0.0427872128785,0.010785639286,9.80499362946,9e-08,0.0,0.0,0.0,9e-08,0.0,0.0,0.0,9e-08
1560469168462869268,11738,1560469168459043648,base_link,0.00211071186852,-0.000837795713244,-0.600358455,-0.799727905221,1.0,0.0,0.0,0.0,1.0,0.0,0.0,0.0,1.0,0.000309462368023,-0.00156877213158,0.00134277367033,1.21846967915e-07,0.0,0.0,0.0,1.21846967915e-07,0.0,0.0,0.0,1.21846967915e-07,0.00134331732988,0.00520033016801,9.8612651825,9e-08,0.0,0.0,0.0,9e-08,0.0,0.0,0.0,9e-08
1560469168481924097,11739,1560469168479043648,base_link,0.00212960769188,-0.000843623297072,-0.600372373997,-0.799717357972,1.0,0.0,0.0,0.0,1.0,0.0,0.0,0.0,1.0,-0.0011929400498,0.000680706172716,0.0030202048365,1.21846967915e-07,0.0,0.0,0.0,1.21846967915e-07,0.0,0.0,0.0,1.21846967915e-07,-0.0824445486069,-0.0412551313639,9.76131248474,9e-08,0.0,0.0,0.0,9e-08,0.0,0.0,0.0,9e-08
1560469168503203477,11740,1560469168499043648,base_link,0.00210229484653,-0.00083910769854,-0.600383374324,-0.799709139336,1.0,0.0,0.0,0.0,1.0,0.0,0.0,0.0,1.0,0.00208243750967,-0.00135751231574,0.00117831607349,1.21846967915e-07,0.0,0.0,0.0,1.21846967915e-07,0.0,0.0,0.0,1.21846967915e-07,-0.0193230509758,-0.00638176873326,9.88506507874,9e-08,0.0,0.0,0.0,9e-08,0.0,0.0,0.0,9e-08
1560469168521946540,11741,1560469168519041600,base_link,0.00212397133292,-0.000849103251718,-0.600393173467,-0.799701784711,1.0,0.0,0.0,0.0,1.0,0.0,0.0,0.0,1.0,-0.00110506662168,0.00258245994337,0.00162645266391,1.21846967915e-07,0.0,0.0,0.0,1.21846967915e-07,0.0,0.0,0.0,1.21846967915e-07,-0.0905397683382,-0.0152680650353,9.72379302979,9e-08,0.0,0.0,0.0,9e-08,0.0,0.0,0.0,9e-08
1560469168541917254,11742,1560469168539041600,base_link,0.00210987638133,-0.000847096131535,-0.600400127697,-0.799696516355,1.0,0.0,0.0,0.0,1.0,0.0,0.0,0.0,1.0,0.0023981872946,0.000344356434653,0.000952021218836,1.21846967915e-07,0.0,0.0,0.0,1.21846967915e-07,0.0,0.0,0.0,1.21846967915e-07,-0.0613092072308,-0.0288204625249,9.77203941345,9e-08,0.0,0.0,0.0,9e-08,0.0,0.0,0.0,9e-08
1560469168561685540,11743,1560469168559041600,base_link,0.00211316482334,-0.000855770809066,-0.600415490223,-0.799684947045,1.0,0.0,0.0,0.0,1.0,0.0,0.0,0.0,1.0,0.00146013381891,0.00322471372783,0.00244093709625,1.21846967915e-07,0.0,0.0,0.0,1.21846967915e-07,0.0,0.0,0.0,1.21846967915e-07,-0.0443218648434,-0.0277544297278,9.7958278656,9e-08,0.0,0.0,0.0,9e-08,0.0,0.0,0.0,9e-08
1560469168583011226,11744,1560469168579041600,base_link,0.002103975164,-0.000848764554046,-0.600427428318,-0.799676043524,1.0,0.0,0.0,0.0,1.0,0.0,0.0,0.0,1.0,0.00251118629239,0.000983646605164,0.00137266819365,1.21846967915e-07,0.0,0.0,0.0,1.21846967915e-07,0.0,0.0,0.0,1.21846967915e-07,-0.0269365906715,-0.0178000852466,9.78054428101,9e-08,0.0,0.0,0.0,9e-08,0.0,0.0,0.0,9e-08
1560469168602512537,11745,1560469168599041600,base_link,0.0021052247522,-0.000856028299969,-0.600439366412,-0.799667140002,1.0,0.0,0.0,0.0,1.0,0.0,0.0,0.0,1.0,0.000902387546375,0.00321768899448,0.00095860264264,1.21846967915e-07,0.0,0.0,0.0,1.21846967915e-07,0.0,0.0,0.0,1.21846967915e-07,-0.0318334326148,-0.00938440859318,9.77449035645,9e-08,0.0,0.0,0.0,9e-08,0.0,0.0,0.0,9e-08
1560469168622117199,11746,1560469168619039552,base_link,0.00210864091068,-0.000853709605916,-0.60044969239,-0.799659342835,1.0,0.0,0.0,0.0,1.0,0.0,0.0,0.0,1.0,-0.000686254177708,-0.000925896514673,0.000669779023156,1.21846967915e-07,0.0,0.0,0.0,1.21846967915e-07,0.0,0.0,0.0,1.21846967915e-07,-0.0112645700574,0.0179331339896,9.82814598083,9e-08,0.0,0.0,0.0,9e-08,0.0,0.0,0.0,9e-08
1560469168642404070,11747,1560469168639039552,base_link,0.002104714586,-0.000846455161934,-0.600456362129,-0.799654443264,1.0,0.0,0.0,0.0,1.0,0.0,0.0,0.0,1.0,0.000593006960116,-7.53297936171e-05,0.00183731946163,1.21846967915e-07,0.0,0.0,0.0,1.21846967915e-07,0.0,0.0,0.0,1.21846967915e-07,-0.0227992013097,-0.0229686312377,9.84912395477,9e-08,0.0,0.0,0.0,9e-08,0.0,0.0,0.0,9e-08
1560469168661694850,11748,1560469168659039552,base_link,0.00211133765044,-0.000837413592793,-0.600466572203,-0.799646593413,1.0,0.0,0.0,0.0,1.0,0.0,0.0,0.0,1.0,-0.000257000472629,-0.00103137013502,0.00163302675355,1.21846967915e-07,0.0,0.0,0.0,1.21846967915e-07,0.0,0.0,0.0,1.21846967915e-07,-0.0701629817486,-0.0463547557592,9.78753852844,9e-08,0.0,0.0,0.0,9e-08,0.0,0.0,0.0,9e-08
1560469168680865635,11749,1560469168679039552,base_link,0.00210135889015,-0.00083967816272,-0.60046972268,-0.799644285873,1.0,0.0,0.0,0.0,1.0,0.0,0.0,0.0,1.0,0.00227484526113,-0.000619833066594,0.000531310797669,1.21846967915e-07,0.0,0.0,0.0,1.21846967915e-07,0.0,0.0,0.0,1.21846967915e-07,-0.0269940793514,-0.0271241813898,9.84672737122,9e-08,0.0,0.0,0.0,9e-08,0.0,0.0,0.0,9e-08
1560469168702399910,11750,1560469168699039552,base_link,0.00211080155405,-0.000843092592517,-0.600473421066,-0.799641599012,1.0,0.0,0.0,0.0,1.0,0.0,0.0,0.0,1.0,0.000489338184707,0.000126176921185,0.00119187124074,1.21846967915e-07,0.0,0.0,0.0,1.21846967915e-07,0.0,0.0,0.0,1.21846967915e-07,-0.0484658591449,-0.0141650550067,9.77595615387,9e-08,0.0,0.0,0.0,9e-08,0.0,0.0,0.0,9e-08
1560469168721941778,11751,1560469168719037504,base_link,0.00210106880129,-0.000842109838316,-0.600485991364,-0.799632063287,1.0,0.0,0.0,0.0,1.0,0.0,0.0,0.0,1.0,0.00132539961487,0.00096625322476,0.000864775909577,1.21846967915e-07,0.0,0.0,0.0,1.21846967915e-07,0.0,0.0,0.0,1.21846967915e-07,-0.0083236657083,-0.0375779010355,9.82951259613,9e-08,0.0,0.0,0.0,9e-08,0.0,0.0,0.0,9e-08
1560469168742345371,11752,1560469168739037504,base_link,0.00210790543994,-0.000835095063376,-0.60049436805,-0.799625793943,1.0,0.0,0.0,0.0,1.0,0.0,0.0,0.0,1.0,0.000589185627177,0.000554968719371,0.000976223964244,1.21846967915e-07,0.0,0.0,0.0,1.21846967915e-07,0.0,0.0,0.0,1.21846967915e-07,-0.0375447645783,-0.0212497040629,9.76986885071,9e-08,0.0,0.0,0.0,9e-08,0.0,0.0,0.0,9e-08
1560469168762197631,11753,1560469168759037504,base_link,0.0021063061646,-0.000832005172544,-0.600501185303,-0.799620662565,1.0,0.0,0.0,0.0,1.0,0.0,0.0,0.0,1.0,-0.000580103020184,-0.000828300835565,0.00110467232298,1.21846967915e-07,0.0,0.0,0.0,1.21846967915e-07,0.0,0.0,0.0,1.21846967915e-07,-0.00665966048837,-0.0125471614301,9.79937458038,9e-08,0.0,0.0,0.0,9e-08,0.0,0.0,0.0,9e-08
1560469168782924129,11754,1560469168779037504,base_link,0.00211266046056,-0.000820574486247,-0.600513155008,-0.799611643139,1.0,0.0,0.0,0.0,1.0,0.0,0.0,0.0,1.0,-0.00185707991477,-0.000296042766422,0.00111904041842,1.21846967915e-07,0.0,0.0,0.0,1.21846967915e-07,0.0,0.0,0.0,1.21846967915e-07,-0.0374056212604,-0.0104369744658,9.74395847321,9e-08,0.0,0.0,0.0,9e-08,0.0,0.0,0.0,9e-08
1560469168802719277,11755,1560469168799037504,base_link,0.00210868346912,-0.000818804689041,-0.600526557705,-0.799601696483,1.0,0.0,0.0,0.0,1.0,0.0,0.0,0.0,1.0,-0.000784407369792,-0.000719611998647,0.00174574740231,1.21846967915e-07,0.0,0.0,0.0,1.21846967915e-07,0.0,0.0,0.0,1.21846967915e-07,-0.0186519362032,-0.0152613930404,9.82772922516,9e-08,0.0,0.0,0.0,9e-08,0.0,0.0,0.0,9e-08
1560469168821496459,11756,1560469168819035456,base_link,0.00211650360283,-0.00081854629264,-0.600539528398,-0.799591844657,1.0,0.0,0.0,0.0,1.0,0.0,0.0,0.0,1.0,-0.00175084965304,0.000661244906951,0.00111308868509,1.21846967915e-07,0.0,0.0,0.0,1.21846967915e-07,0.0,0.0,0.0,1.21846967915e-07,-0.0271265767515,-0.0236505381763,9.76408481598,9e-08,0.0,0.0,0.0,9e-08,0.0,0.0,0.0,9e-08
1560469168841462622,11757,1560469168839035456,base_link,0.00210918849044,-0.00082032864335,-0.600547894547,-0.79958558585,1.0,0.0,0.0,0.0,1.0,0.0,0.0,0.0,1.0,0.00151997909416,-0.00168983952608,-0.000940574274864,1.21846967915e-07,0.0,0.0,0.0,1.21846967915e-07,0.0,0.0,0.0,1.21846967915e-07,-0.00643986463547,-0.0666617155075,9.81623363495,9e-08,0.0,0.0,0.0,9e-08,0.0,0.0,0.0,9e-08
1560469168862206521,11758,1560469168859035456,base_link,0.00210581184463,-0.000817459653042,-0.600556481968,-0.799579190066,1.0,0.0,0.0,0.0,1.0,0.0,0.0,0.0,1.0,-1.87295663636e-05,0.00141421274748,0.00279605318792,1.21846967915e-07,0.0,0.0,0.0,1.21846967915e-07,0.0,0.0,0.0,1.21846967915e-07,-0.0336707308888,-0.05382681638,9.8158788681,9e-08,0.0,0.0,0.0,9e-08,0.0,0.0,0.0,9e-08
1560469168881825116,11759,1560469168879035456,base_link,0.00210186967373,-0.000824381737843,-0.600562793458,-0.799574480155,1.0,0.0,0.0,0.0,1.0,0.0,0.0,0.0,1.0,0.00154251686763,-0.000511855061632,0.000650430389214,1.21846967915e-07,0.0,0.0,0.0,1.21846967915e-07,0.0,0.0,0.0,1.21846967915e-07,-0.044922683388,-0.0102131068707,9.78815555573,9e-08,0.0,0.0,0.0,9e-08,0.0,0.0,0.0,9e-08
1560469168903675991,11760,1560469168899035456,base_link,0.00208981188842,-0.000825954836036,-0.600571812884,-0.79956773666,1.0,0.0,0.0,0.0,1.0,0.0,0.0,0.0,1.0,-0.000364480074495,2.55146296695e-05,0.00130875443574,1.21846967915e-07,0.0,0.0,0.0,1.21846967915e-07,0.0,0.0,0.0,1.21846967915e-07,-0.0343102291226,0.000298634171487,9.80094909668,9e-08,0.0,0.0,0.0,9e-08,0.0,0.0,0.0,9e-08
1560469168921850541,11761,1560469168919033408,base_link,0.0020938877027,-0.000822283368086,-0.600579199119,-0.799562204886,1.0,0.0,0.0,0.0,1.0,0.0,0.0,0.0,1.0,-0.0022921517957,-0.000829822325613,0.000485880300403,1.21846967915e-07,0.0,0.0,0.0,1.21846967915e-07,0.0,0.0,0.0,1.21846967915e-07,-0.0451981015503,0.0106568597257,9.77261161804,9e-08,0.0,0.0,0.0,9e-08,0.0,0.0,0.0,9e-08
1560469168941840860,11762,1560469168939033408,base_link,0.00208344104654,-0.00081996776096,-0.600589619927,-0.799554397182,1.0,0.0,0.0,0.0,1.0,0.0,0.0,0.0,1.0,6.32294249954e-05,-0.000508839497343,0.00141611357685,1.21846967915e-07,0.0,0.0,0.0,1.21846967915e-07,0.0,0.0,0.0,1.21846967915e-07,-0.0252999067307,-0.00860185176134,9.83117389679,9e-08,0.0,0.0,0.0,9e-08,0.0,0.0,0.0,9e-08
1560469168961161272,11763,1560469168959033408,base_link,0.00209043367792,-0.000818366633466,-0.600592896845,-0.799551794614,1.0,0.0,0.0,0.0,1.0,0.0,0.0,0.0,1.0,-0.000916040036827,0.000441579031758,0.000260795059148,1.21846967915e-07,0.0,0.0,0.0,1.21846967915e-07,0.0,0.0,0.0,1.21846967915e-07,-0.0631373673677,-0.028252966702,9.79360866547,9e-08,0.0,0.0,0.0,9e-08,0.0,0.0,0.0,9e-08
1560469168980664726,11764,1560469168975033408,base_link,0.00208895491622,-0.000815397914824,-0.600601684463,-0.799545198632,1.0,0.0,0.0,0.0,1.0,0.0,0.0,0.0,1.0,0.000595000805333,-0.000733088993002,0.00172932085115,1.21846967915e-07,0.0,0.0,0.0,1.21846967915e-07,0.0,0.0,0.0,1.21846967915e-07,-0.0315904170275,-0.0392862558365,9.79113197327,9e-08,0.0,0.0,0.0,9e-08,0.0,0.0,0.0,9e-08
1560469169003529287,11765,1560469168999033408,base_link,0.00208746067874,-0.000815321523661,-0.600611778633,-0.799537633273,1.0,0.0,0.0,0.0,1.0,0.0,0.0,0.0,1.0,-0.0010083244415,0.00119202362839,0.000781460897997,1.21846967915e-07,0.0,0.0,0.0,1.21846967915e-07,0.0,0.0,0.0,1.21846967915e-07,-0.0658566355705,-0.000215526670216,9.78962612152,9e-08,0.0,0.0,0.0,9e-08,0.0,0.0,0.0,9e-08
1560469169022961296,11766,1560469169019031360,base_link,0.00208646051426,-0.000816873877702,-0.600625118111,-0.799527665543,1.0,0.0,0.0,0.0,1.0,0.0,0.0,0.0,1.0,-0.000458954338683,-0.000717211689334,0.00195316551253,1.21846967915e-07,0.0,0.0,0.0,1.21846967915e-07,0.0,0.0,0.0,1.21846967915e-07,-0.0476691015065,-0.0187531784177,9.79078006744,9e-08,0.0,0.0,0.0,9e-08,0.0,0.0,0.0,9e-08
1560469169041769289,11767,1560469169039031360,base_link,0.00208911848222,-0.000823766780749,-0.600631682482,-0.799522787046,1.0,0.0,0.0,0.0,1.0,0.0,0.0,0.0,1.0,0.00079625158105,-0.000726542319171,0.000553635763936,1.21846967915e-07,0.0,0.0,0.0,1.21846967915e-07,0.0,0.0,0.0,1.21846967915e-07,-0.0520163923502,-0.0292077064514,9.78943443298,9e-08,0.0,0.0,0.0,9e-08,0.0,0.0,0.0,9e-08
1560469169062943136,11768,1560469169059031360,base_link,0.00208000327957,-0.000812923474994,-0.600639806287,-0.799516686289,1.0,0.0,0.0,0.0,1.0,0.0,0.0,0.0,1.0,-0.000255142367678,-8.34918464534e-05,0.00152257562149,1.21846967915e-07,0.0,0.0,0.0,1.21846967915e-07,0.0,0.0,0.0,1.21846967915e-07,-0.043940320611,-0.0276190340519,9.82311916351,9e-08,0.0,0.0,0.0,9e-08,0.0,0.0,0.0,9e-08
1560469169082204381,11769,1560469169079031360,base_link,0.00209632246523,-0.00081442549154,-0.60065114379,-0.799508046185,1.0,0.0,0.0,0.0,1.0,0.0,0.0,0.0,1.0,-0.000794113148004,0.000658824108541,0.00109975365922,1.21846967915e-07,0.0,0.0,0.0,1.21846967915e-07,0.0,0.0,0.0,1.21846967915e-07,-0.0415801368654,-0.0326358303428,9.78573226929,9e-08,0.0,0.0,0.0,9e-08,0.0,0.0,0.0,9e-08
1560469169104056017,11770,1560469169099031360,base_link,0.0020983725966,-0.000807941050724,-0.600653725284,-0.799506223334,1.0,0.0,0.0,0.0,1.0,0.0,0.0,0.0,1.0,-0.000810049124993,-0.000200477952603,3.91865614802e-05,1.21846967915e-07,0.0,0.0,0.0,1.21846967915e-07,0.0,0.0,0.0,1.21846967915e-07,-0.023273140192,-0.00439839810133,9.80107593536,9e-08,0.0,0.0,0.0,9e-08,0.0,0.0,0.0,9e-08
1560469169122328419,11771,1560469169119029312,base_link,0.00210808172407,-0.000800548353554,-0.600661532988,-0.799500270092,1.0,0.0,0.0,0.0,1.0,0.0,0.0,0.0,1.0,-0.00121759134345,0.000439771509264,0.000353698851541,1.21846967915e-07,0.0,0.0,0.0,1.21846967915e-07,0.0,0.0,0.0,1.21846967915e-07,-0.0358702577651,-0.0262724496424,9.7951335907,9e-08,0.0,0.0,0.0,9e-08,0.0,0.0,0.0,9e-08
1560469169142515402,11772,1560469169139029312,base_link,0.00211158320522,-0.000801522999426,-0.600667833942,-0.799495570718,1.0,0.0,0.0,0.0,1.0,0.0,0.0,0.0,1.0,0.00134788325522,0.000769042235333,0.002028767718,1.21846967915e-07,0.0,0.0,0.0,1.21846967915e-07,0.0,0.0,0.0,1.21846967915e-07,-0.017662089318,-0.013420060277,9.79805088043,9e-08,0.0,0.0,0.0,9e-08,0.0,0.0,0.0,9e-08
1560469169160781223,11773,1560469169155029312,base_link,0.00211504258068,-0.000801394542088,-0.600678507631,-0.799487594427,1.0,0.0,0.0,0.0,1.0,0.0,0.0,0.0,1.0,-0.00150825886521,0.00078017328633,0.00204957649112,1.21846967915e-07,0.0,0.0,0.0,1.21846967915e-07,0.0,0.0,0.0,1.21846967915e-07,-0.0049533136189,-0.0358121134341,9.81416893005,9e-08,0.0,0.0,0.0,9e-08,0.0,0.0,0.0,9e-08
1560469169180890311,11774,1560469169175029312,base_link,0.00211324545388,-0.000798681956101,-0.600690962025,-0.7994782589,1.0,0.0,0.0,0.0,1.0,0.0,0.0,0.0,1.0,0.000807698175777,-0.00104587199166,0.00172963400837,1.21846967915e-07,0.0,0.0,0.0,1.21846967915e-07,0.0,0.0,0.0,1.21846967915e-07,0.00089268758893,-0.0557419992983,9.79070568085,9e-08,0.0,0.0,0.0,9e-08,0.0,0.0,0.0,9e-08
1560469169203353770,11775,1560469169199029312,base_link,0.00211712279931,-0.000805130259287,-0.600703711446,-0.799468544052,1.0,0.0,0.0,0.0,1.0,0.0,0.0,0.0,1.0,0.00091112498194,0.00257403566502,0.00117739976849,1.21846967915e-07,0.0,0.0,0.0,1.21846967915e-07,0.0,0.0,0.0,1.21846967915e-07,-0.058229893446,-0.0583908222616,9.75523376465,9e-08,0.0,0.0,0.0,9e-08,0.0,0.0,0.0,9e-08
1560469169222258945,11776,1560469169219027264,base_link,0.00210168149464,-0.000807001595824,-0.600707525736,-0.799465741286,1.0,0.0,0.0,0.0,1.0,0.0,0.0,0.0,1.0,0.000576956546865,-9.43494960666e-05,0.000340487778885,1.21846967915e-07,0.0,0.0,0.0,1.21846967915e-07,0.0,0.0,0.0,1.21846967915e-07,-0.0188885144889,-0.0155122280121,9.77762317657,9e-08,0.0,0.0,0.0,9e-08,0.0,0.0,0.0,9e-08
1560469169241706477,11777,1560469169239027264,base_link,0.0020946621922,-0.000799419649427,-0.600717451319,-0.799458344514,1.0,0.0,0.0,0.0,1.0,0.0,0.0,0.0,1.0,0.000919313577469,-0.000187754223589,0.00214584544301,1.21846967915e-07,0.0,0.0,0.0,1.21846967915e-07,0.0,0.0,0.0,1.21846967915e-07,-0.014471706003,0.000359892845155,9.81752109528,9e-08,0.0,0.0,0.0,9e-08,0.0,0.0,0.0,9e-08
1560469169260473874,11778,1560469169255027264,base_link,0.00210251484155,-0.00080393051467,-0.600724215888,-0.799453181525,1.0,0.0,0.0,0.0,1.0,0.0,0.0,0.0,1.0,-0.00134072510991,1.6113743186e-05,-6.00925413892e-05,1.21846967915e-07,0.0,0.0,0.0,1.21846967915e-07,0.0,0.0,0.0,1.21846967915e-07,-0.0190134607255,-0.0586399175227,9.79925823212,9e-08,0.0,0.0,0.0,9e-08,0.0,0.0,0.0,9e-08
1560469169282763350,11779,1560469169279027264,base_link,0.00210447425842,-0.000791861781063,-0.600737344631,-0.799443340236,1.0,0.0,0.0,0.0,1.0,0.0,0.0,0.0,1.0,-0.000802928290796,-0.000730116851628,0.000362254853826,1.21846967915e-07,0.0,0.0,0.0,1.21846967915e-07,0.0,0.0,0.0,1.21846967915e-07,-0.0326841585338,-0.0215198211372,9.8108663559,9e-08,0.0,0.0,0.0,9e-08,0.0,0.0,0.0,9e-08
1560469169303611635,11780,1560469169299027264,base_link,0.00210266289059,-0.000787334987274,-0.600749314336,-0.799434320811,1.0,0.0,0.0,0.0,1.0,0.0,0.0,0.0,1.0,0.000491063401569,-0.0010422518244,0.0016237415839,1.21846967915e-07,0.0,0.0,0.0,1.21846967915e-07,0.0,0.0,0.0,1.21846967915e-07,0.00532957911491,-0.0272546596825,9.80393505096,9e-08,0.0,0.0,0.0,9e-08,0.0,0.0,0.0,9e-08
1560469169321805080,11781,1560469169319025472,base_link,0.00209572199611,-0.000785804694474,-0.600757733169,-0.799428093614,1.0,0.0,0.0,0.0,1.0,0.0,0.0,0.0,1.0,0.000581864384003,-0.00051663222257,0.000449156592367,1.21846967915e-07,0.0,0.0,0.0,1.21846967915e-07,0.0,0.0,0.0,1.21846967915e-07,-0.0477192848921,-0.0449187792838,9.79059028625,9e-08,0.0,0.0,0.0,9e-08,0.0,0.0,0.0,9e-08
1560469169340771017,11782,1560469169335025472,base_link,0.00209176941197,-0.000780547533666,-0.600761652826,-0.799425101188,1.0,0.0,0.0,0.0,1.0,0.0,0.0,0.0,1.0,-0.00110911391675,-0.000408119580243,0.00121354649309,1.21846967915e-07,0.0,0.0,0.0,1.21846967915e-07,0.0,0.0,0.0,1.21846967915e-07,0.0145820267498,-0.022103048861,9.7846326828,9e-08,0.0,0.0,0.0,9e-08,0.0,0.0,0.0,9e-08
1560469169360644702,11783,1560469169355025472,base_link,0.00210199302735,-0.000768302186654,-0.600772410809,-0.799417040603,1.0,0.0,0.0,0.0,1.0,0.0,0.0,0.0,1.0,-0.00122514367104,-0.00243378523737,0.000801922637038,1.21846967915e-07,0.0,0.0,0.0,1.21846967915e-07,0.0,0.0,0.0,1.21846967915e-07,-0.0307302735746,-0.00998302921653,9.7393693924,9e-08,0.0,0.0,0.0,9e-08,0.0,0.0,0.0,9e-08
1560469169382050353,11784,1560469169379025472,base_link,0.00210659966966,-0.000768101536374,-0.600779101622,-0.799412035665,1.0,0.0,0.0,0.0,1.0,0.0,0.0,0.0,1.0,-0.00217614765279,0.00193385803141,0.00100671779364,1.21846967915e-07,0.0,0.0,0.0,1.21846967915e-07,0.0,0.0,0.0,1.21846967915e-07,0.0445006527007,-0.0460800975561,9.84753894806,9e-08,0.0,0.0,0.0,9e-08,0.0,0.0,0.0,9e-08
1560469169400773977,11785,1560469169395025472,base_link,0.00210984514163,-0.000779573217067,-0.600785170768,-0.799407399511,1.0,0.0,0.0,0.0,1.0,0.0,0.0,0.0,1.0,-0.0011100921547,-0.000516001542564,0.000793503830209,1.21846967915e-07,0.0,0.0,0.0,1.21846967915e-07,0.0,0.0,0.0,1.21846967915e-07,-0.0299719981849,0.0240665394813,9.80961227417,9e-08,0.0,0.0,0.0,9e-08,0.0,0.0,0.0,9e-08
1560469169420958093,11786,1560469169415022400,base_link,0.00210570997603,-0.000785013947156,-0.600792514856,-0.79940182559,1.0,0.0,0.0,0.0,1.0,0.0,0.0,0.0,1.0,0.000701704877429,-0.00136327371001,0.00183621875476,1.21846967915e-07,0.0,0.0,0.0,1.21846967915e-07,0.0,0.0,0.0,1.21846967915e-07,-0.0415038838983,-0.00600899755955,9.79216098785,9e-08,0.0,0.0,0.0,9e-08,0.0,0.0,0.0,9e-08
1560469169442031092,11787,1560469169439022400,base_link,0.00210356871856,-0.000780674797393,-0.600804990323,-0.79939246899,1.0,0.0,0.0,0.0,1.0,0.0,0.0,0.0,1.0,-0.00163357635029,-0.00104778690729,0.00154259521514,1.21846967915e-07,0.0,0.0,0.0,1.21846967915e-07,0.0,0.0,0.0,1.21846967915e-07,-0.0141175687313,-0.0218413211405,9.84280490875,9e-08,0.0,0.0,0.0,9e-08,0.0,0.0,0.0,9e-08
1560469169460710754,11788,1560469169455022400,base_link,0.00210608312381,-0.000781084988303,-0.600815937967,-0.799384303038,1.0,0.0,0.0,0.0,1.0,0.0,0.0,0.0,1.0,-0.000685720413458,-8.76929261722e-05,0.000996131100692,1.21846967915e-07,0.0,0.0,0.0,1.21846967915e-07,0.0,0.0,0.0,1.21846967915e-07,-0.0578651279211,-0.0225850567222,9.78248214722,9e-08,0.0,0.0,0.0,9e-08,0.0,0.0,0.0,9e-08
1560469169483180882,11789,1560469169480022400,base_link,0.00209836280075,-0.000773800045479,-0.600828013039,-0.799375262539,1.0,0.0,0.0,0.0,1.0,0.0,0.0,0.0,1.0,-0.00026181989233,-0.000297343125567,0.00163114233874,1.21846967915e-07,0.0,0.0,0.0,1.21846967915e-07,0.0,0.0,0.0,1.21846967915e-07,-0.0291689373553,-0.0331666469574,9.78248119354,9e-08,0.0,0.0,0.0,9e-08,0.0,0.0,0.0,9e-08
1560469169500444739,11790,1560469169496022400,base_link,0.00210045964762,-0.000778460523802,-0.600835504642,-0.799369541105,1.0,0.0,0.0,0.0,1.0,0.0,0.0,0.0,1.0,-0.00122520583682,-0.000298966828268,0.00100415491033,1.21846967915e-07,0.0,0.0,0.0,1.21846967915e-07,0.0,0.0,0.0,1.21846967915e-07,-0.0497241616249,-0.0185524374247,9.82625293732,9e-08,0.0,0.0,0.0,9e-08,0.0,0.0,0.0,9e-08
1560469169521719616,11791,1560469169516019584,base_link,0.00209502435052,-0.000772637673263,-0.600841394664,-0.799365168369,1.0,0.0,0.0,0.0,1.0,0.0,0.0,0.0,1.0,-0.000584253750276,-0.000730399682652,0.000785817625001,1.21846967915e-07,0.0,0.0,0.0,1.21846967915e-07,0.0,0.0,0.0,1.21846967915e-07,-0.039444129914,-0.0284990333021,9.84442710876,9e-08,0.0,0.0,0.0,9e-08,0.0,0.0,0.0,9e-08
1560469169543029822,11792,1560469169540019584,base_link,0.00208783641954,-0.000768556590629,-0.600849075927,-0.799359425861,1.0,0.0,0.0,0.0,1.0,0.0,0.0,0.0,1.0,-0.000158386770636,-9.74593567662e-05,0.000455999863334,1.21846967915e-07,0.0,0.0,0.0,1.21846967915e-07,0.0,0.0,0.0,1.21846967915e-07,-0.0354967527092,-0.03457326442,9.78106880188,9e-08,0.0,0.0,0.0,9e-08,0.0,0.0,0.0,9e-08
1560469169561546277,11793,1560469169556019584,base_link,0.00208761140311,-0.000781286379445,-0.600848780899,-0.799359720889,1.0,0.0,0.0,0.0,1.0,0.0,0.0,0.0,1.0,0.000564093701541,0.000856764148921,-0.00061989063397,1.21846967915e-07,0.0,0.0,0.0,1.21846967915e-07,0.0,0.0,0.0,1.21846967915e-07,-0.0399057865143,-0.0110670849681,9.79978752136,9e-08,0.0,0.0,0.0,9e-08,0.0,0.0,0.0,9e-08
1560469169580743079,11794,1560469169576019584,base_link,0.00209406777347,-0.000783941301629,-0.600860434503,-0.799350933271,1.0,0.0,0.0,0.0,1.0,0.0,0.0,0.0,1.0,0.000276101112831,0.00161640485749,0.00150828738697,1.21846967915e-07,0.0,0.0,0.0,1.21846967915e-07,0.0,0.0,0.0,1.21846967915e-07,-0.0644162669778,-0.04297510162,9.78816699982,9e-08,0.0,0.0,0.0,9e-08,0.0,0.0,0.0,9e-08
1560469169604101234,11795,1560469169600019584,base_link,0.00209423870692,-0.000786321898867,-0.600864775628,-0.79934760367,1.0,0.0,0.0,0.0,1.0,0.0,0.0,0.0,1.0,0.00046637019841,-0.000946339278016,-0.000505206407979,1.21846967915e-07,0.0,0.0,0.0,1.21846967915e-07,0.0,0.0,0.0,1.21846967915e-07,-0.0457478426397,0.00143465399742,9.8250579834,9e-08,0.0,0.0,0.0,9e-08,0.0,0.0,0.0,9e-08
1560469169622893912,11796,1560469169620017536,base_link,0.00209501611872,-0.000787614621736,-0.600869980764,-0.79934366294,1.0,0.0,0.0,0.0,1.0,0.0,0.0,0.0,1.0,-0.000686457962729,0.00108362734318,0.00109817413613,1.21846967915e-07,0.0,0.0,0.0,1.21846967915e-07,0.0,0.0,0.0,1.21846967915e-07,-0.0421488396823,-0.0144851393998,9.77697944641,9e-08,0.0,0.0,0.0,9e-08,0.0,0.0,0.0,9e-08
1560469169644248130,11797,1560469169640017536,base_link,0.00209570861943,-0.000785117709075,-0.600881855638,-0.799334822638,1.0,0.0,0.0,0.0,1.0,0.0,0.0,0.0,1.0,0.00114436994772,0.00055881839944,0.00278883730061,1.21846967915e-07,0.0,0.0,0.0,1.21846967915e-07,0.0,0.0,0.0,1.21846967915e-07,-0.0234201550484,0.01587061584,9.81004238129,9e-08,0.0,0.0,0.0,9e-08,0.0,0.0,0.0,9e-08
1560469169662842991,11798,1560469169660017536,base_link,0.00209251867099,-0.000783418952357,-0.600888198739,-0.799330081118,1.0,0.0,0.0,0.0,1.0,0.0,0.0,0.0,1.0,0.000490079401061,0.000230043719057,0.00108505808748,1.21846967915e-07,0.0,0.0,0.0,1.21846967915e-07,0.0,0.0,0.0,1.21846967915e-07,-0.030537057668,-0.0225706063211,9.81606960297,9e-08,0.0,0.0,0.0,9e-08,0.0,0.0,0.0,9e-08
1560469169680805498,11799,1560469169676017536,base_link,0.00209615276654,-0.000784679159591,-0.600898503643,-0.79932222073,1.0,0.0,0.0,0.0,1.0,0.0,0.0,0.0,1.0,0.000283227884211,0.00225746934302,0.0020373177249,1.21846967915e-07,0.0,0.0,0.0,1.21846967915e-07,0.0,0.0,0.0,1.21846967915e-07,-0.00510966032743,-0.0130877643824,9.82907104492,9e-08,0.0,0.0,0.0,9e-08,0.0,0.0,0.0,9e-08
1560469169703391745,11800,1560469169700017536,base_link,0.00209563593258,-0.000785733036599,-0.600909482897,-0.799314023168,1.0,0.0,0.0,0.0,1.0,0.0,0.0,0.0,1.0,-0.000597235863097,-0.000521008565556,-0.000278867955785,1.21846967915e-07,0.0,0.0,0.0,1.21846967915e-07,0.0,0.0,0.0,1.21846967915e-07,-0.0169404260814,-0.0351348221302,9.79812240601,9e-08,0.0,0.0,0.0,9e-08,0.0,0.0,0.0,9e-08
1560469169720729398,11801,1560469169716012928,base_link,0.00209170697372,-0.000781161173671,-0.600907912927,-0.79931517167,1.0,0.0,0.0,0.0,1.0,0.0,0.0,0.0,1.0,0.000569024297874,-0.000416329712607,-0.000614641467109,1.21846967915e-07,0.0,0.0,0.0,1.21846967915e-07,0.0,0.0,0.0,1.21846967915e-07,-0.0401899889112,-0.0241638123989,9.80522346497,9e-08,0.0,0.0,0.0,9e-08,0.0,0.0,0.0,9e-08
1560469169742811332,11802,1560469169740012928,base_link,0.00209344553122,-0.000775461800226,-0.600912517471,-0.799311747238,1.0,0.0,0.0,0.0,1.0,0.0,0.0,0.0,1.0,-0.000273439625744,0.00107442843728,2.56657076534e-05,1.21846967915e-07,0.0,0.0,0.0,1.21846967915e-07,0.0,0.0,0.0,1.21846967915e-07,-0.0379793569446,-0.0198834314942,9.82241249084,9e-08,0.0,0.0,0.0,9e-08,0.0,0.0,0.0,9e-08
1560469169760623646,11803,1560469169757012928,base_link,0.00209222792359,-0.000776586882359,-0.600924740057,-0.799302474932,1.0,0.0,0.0,0.0,1.0,0.0,0.0,0.0,1.0,0.000279687228613,0.000338203972206,0.00130213610828,1.21846967915e-07,0.0,0.0,0.0,1.21846967915e-07,0.0,0.0,0.0,1.21846967915e-07,-0.0201821886003,-0.0234631225467,9.84129428864,9e-08,0.0,0.0,0.0,9e-08,0.0,0.0,0.0,9e-08
1560469169781642715,11804,1560469169777012928,base_link,0.00209240778856,-0.000768583508636,-0.600937594845,-0.799292907597,1.0,0.0,0.0,0.0,1.0,0.0,0.0,0.0,1.0,0.00156207988039,0.000341028586263,0.00202911021188,1.21846967915e-07,0.0,0.0,0.0,1.21846967915e-07,0.0,0.0,0.0,1.21846967915e-07,-0.0150272510946,-0.00280358269811,9.79936790466,9e-08,0.0,0.0,0.0,9e-08,0.0,0.0,0.0,9e-08
1560469169800803503,11805,1560469169797012928,base_link,0.00209585942612,-0.000769479581916,-0.600948584636,-0.799284530911,1.0,0.0,0.0,0.0,1.0,0.0,0.0,0.0,1.0,-0.000679832533933,0.0003380428534,0.00152679975145,1.21846967915e-07,0.0,0.0,0.0,1.21846967915e-07,0.0,0.0,0.0,1.21846967915e-07,-0.00502174347639,-0.00500876456499,9.83500003815,9e-08,0.0,0.0,0.0,9e-08,0.0,0.0,0.0,9e-08
1560469169820591073,11806,1560469169817010880,base_link,0.00210333094283,-0.000768125285135,-0.600955001494,-0.799279799927,1.0,0.0,0.0,0.0,1.0,0.0,0.0,0.0,1.0,-0.0012161093764,0.00182639318518,0.00120751140639,1.21846967915e-07,0.0,0.0,0.0,1.21846967915e-07,0.0,0.0,0.0,1.21846967915e-07,0.00415461882949,-0.0219545215368,9.77324390411,9e-08,0.0,0.0,0.0,9e-08,0.0,0.0,0.0,9e-08
1560469169840604466,11807,1560469169837010880,base_link,0.00210670693009,-0.00076130115883,-0.600960659708,-0.799275574706,1.0,0.0,0.0,0.0,1.0,0.0,0.0,0.0,1.0,-0.00165011489298,-0.000616943812929,0.000587821006775,1.21846967915e-07,0.0,0.0,0.0,1.21846967915e-07,0.0,0.0,0.0,1.21846967915e-07,0.0129867680371,-0.00269575417042,9.82178497314,9e-08,0.0,0.0,0.0,9e-08,0.0,0.0,0.0,9e-08
1560469169861900308,11808,1560469169859010880,base_link,0.0021057918825,-0.000764315975588,-0.600965801624,-0.799271612902,1.0,0.0,0.0,0.0,1.0,0.0,0.0,0.0,1.0,0.00260262959637,1.70219573192e-05,-0.00011179241119,1.21846967915e-07,0.0,0.0,0.0,1.21846967915e-07,0.0,0.0,0.0,1.21846967915e-07,-0.0121946819127,-0.0309718251228,9.79847621918,9e-08,0.0,0.0,0.0,9e-08,0.0,0.0,0.0,9e-08
1560469169882899767,11809,1560469169879010880,base_link,0.00210959242517,-0.000761845034276,-0.600974715682,-0.799264974773,1.0,0.0,0.0,0.0,1.0,0.0,0.0,0.0,1.0,-0.000576834660023,-0.000300082785543,0.00121166347526,1.21846967915e-07,0.0,0.0,0.0,1.21846967915e-07,0.0,0.0,0.0,1.21846967915e-07,-0.0433146469295,-0.0575548633933,9.78309249878,9e-08,0.0,0.0,0.0,9e-08,0.0,0.0,0.0,9e-08
1560469169902357113,11810,1560469169899010880,base_link,0.00210657065254,-0.000765979088584,-0.600979393982,-0.799261476585,1.0,0.0,0.0,0.0,1.0,0.0,0.0,0.0,1.0,0.00153795431834,-0.000520310539287,0.000224032541155,1.21846967915e-07,0.0,0.0,0.0,1.21846967915e-07,0.0,0.0,0.0,1.21846967915e-07,-0.0106669925153,-0.00897052511573,9.80552864075,9e-08,0.0,0.0,0.0,9e-08,0.0,0.0,0.0,9e-08
1560469169922056675,11811,1560469169919008320,base_link,0.00210121384572,-0.0007808785346,-0.600986158552,-0.79925639789,1.0,0.0,0.0,0.0,1.0,0.0,0.0,0.0,1.0,0.000809994526207,0.000656304764561,0.00150527886581,1.21846967915e-07,0.0,0.0,0.0,1.21846967915e-07,0.0,0.0,0.0,1.21846967915e-07,-0.0117768496275,-0.0242845751345,9.79646778107,9e-08,0.0,0.0,0.0,9e-08,0.0,0.0,0.0,9e-08
1560469169941403821,11812,1560469169939008320,base_link,0.00209757320588,-0.000777736824547,-0.601000383113,-0.79924562937,1.0,0.0,0.0,0.0,1.0,0.0,0.0,0.0,1.0,-0.000345185864717,-0.000938616634812,0.00238029123284,1.21846967915e-07,0.0,0.0,0.0,1.21846967915e-07,0.0,0.0,0.0,1.21846967915e-07,-0.0267046093941,-0.0417679622769,9.81944942474,9e-08,0.0,0.0,0.0,9e-08,0.0,0.0,0.0,9e-08
1560469169962082143,11813,1560469169959008320,base_link,0.00209652727257,-0.000771774527208,-0.601007600761,-0.79924018189,1.0,0.0,0.0,0.0,1.0,0.0,0.0,0.0,1.0,-0.00111049588304,-0.000302634434775,0.000895062927157,1.21846967915e-07,0.0,0.0,0.0,1.21846967915e-07,0.0,0.0,0.0,1.21846967915e-07,-0.0376807749271,-0.0578805319965,9.81956863403,9e-08,0.0,0.0,0.0,9e-08,0.0,0.0,0.0,9e-08
1560469169981272464,11814,1560469169979008320,base_link,0.0021020646029,-0.000774191426711,-0.60101516612,-0.799234470992,1.0,0.0,0.0,0.0,1.0,0.0,0.0,0.0,1.0,7.09717860445e-05,0.000551044184249,0.00193913979456,1.21846967915e-07,0.0,0.0,0.0,1.21846967915e-07,0.0,0.0,0.0,1.21846967915e-07,-0.0359013043344,-0.015337806195,9.77665233612,9e-08,0.0,0.0,0.0,9e-08,0.0,0.0,0.0,9e-08
1560469170003520526,11815,1560469169999008320,base_link,0.00210711576276,-0.000777581819634,-0.601029064043,-0.799224113404,1.0,0.0,0.0,0.0,1.0,0.0,0.0,0.0,1.0,-0.000258940184722,-0.000411987130065,0.00109801779035,1.21846967915e-07,0.0,0.0,0.0,1.21846967915e-07,0.0,0.0,0.0,1.21846967915e-07,-0.0315321348608,-0.0310177728534,9.77847862244,9e-08,0.0,0.0,0.0,9e-08,0.0,0.0,0.0,9e-08
1560469170021529064,11816,1560469170019006272,base_link,0.00209774529179,-0.000777904218329,-0.601039021236,-0.799216600728,1.0,0.0,0.0,0.0,1.0,0.0,0.0,0.0,1.0,0.00112110725604,-0.000519539171364,0.00086670264136,1.21846967915e-07,0.0,0.0,0.0,1.21846967915e-07,0.0,0.0,0.0,1.21846967915e-07,7.02030956745e-05,-0.00434789806604,9.81199455261,9e-08,0.0,0.0,0.0,9e-08,0.0,0.0,0.0,9e-08
1560469170041898202,11817,1560469170039006272,base_link,0.00209687872954,-0.00077771546301,-0.601041739708,-0.799214472312,1.0,0.0,0.0,0.0,1.0,0.0,0.0,0.0,1.0,0.000378353928681,-0.00094179919688,0.000986514962278,1.21846967915e-07,0.0,0.0,0.0,1.21846967915e-07,0.0,0.0,0.0,1.21846967915e-07,-0.0295404493809,-0.0151595063508,9.77744293213,9e-08,0.0,0.0,0.0,9e-08,0.0,0.0,0.0,9e-08
1560469170061356818,11818,1560469170059006272,base_link,0.00210467206872,-0.000779621167339,-0.60104984244,-0.799208476923,1.0,0.0,0.0,0.0,1.0,0.0,0.0,0.0,1.0,-0.0016520479694,0.000437039765529,0.000474754779134,1.21846967915e-07,0.0,0.0,0.0,1.21846967915e-07,0.0,0.0,0.0,1.21846967915e-07,-0.0315552502871,-0.0403059870005,9.80554294586,9e-08,0.0,0.0,0.0,9e-08,0.0,0.0,0.0,9e-08
1560469170082955495,11819,1560469170079006272,base_link,0.00210164527469,-0.000768867259001,-0.601056406811,-0.799203514132,1.0,0.0,0.0,0.0,1.0,0.0,0.0,0.0,1.0,0.000363141385606,-0.00126524025109,-0.000179743103217,1.21846967915e-07,0.0,0.0,0.0,1.21846967915e-07,0.0,0.0,0.0,1.21846967915e-07,-0.0660025924444,-0.0122152902186,9.79401016235,9e-08,0.0,0.0,0.0,9e-08,0.0,0.0,0.0,9e-08
1560469170102664166,11820,1560469170099006272,base_link,0.00210236411718,-0.000766984109821,-0.601063487482,-0.799198203629,1.0,0.0,0.0,0.0,1.0,0.0,0.0,0.0,1.0,3.26443987433e-05,0.000113940041047,-0.00049047608627,1.21846967915e-07,0.0,0.0,0.0,1.21846967915e-07,0.0,0.0,0.0,1.21846967915e-07,-0.0341930910945,-0.0185520499945,9.79661369324,9e-08,0.0,0.0,0.0,9e-08,0.0,0.0,0.0,9e-08
1560469170122296490,11821,1560469170119004480,base_link,0.00210494359486,-0.000766636110207,-0.601072117049,-0.799191765697,1.0,0.0,0.0,0.0,1.0,0.0,0.0,0.0,1.0,-0.00165038998239,0.000434762507211,-0.000275658676401,1.21846967915e-07,0.0,0.0,0.0,1.21846967915e-07,0.0,0.0,0.0,1.21846967915e-07,-0.0600978136063,-0.0110910385847,9.73979663849,9e-08,0.0,0.0,0.0,9e-08,0.0,0.0,0.0,9e-08
1560469170141778605,11822,1560469170139004480,base_link,0.00209929130734,-0.000761260411389,-0.601077838484,-0.799187392962,1.0,0.0,0.0,0.0,1.0,0.0,0.0,0.0,1.0,-0.000359993398888,-0.000621566083282,0.00152736972086,1.21846967915e-07,0.0,0.0,0.0,1.21846967915e-07,0.0,0.0,0.0,1.21846967915e-07,-0.0473653301597,-0.0125810056925,9.83400058746,9e-08,0.0,0.0,0.0,9e-08,0.0,0.0,0.0,9e-08
1560469170162505579,11823,1560469170159004480,base_link,0.00210882839007,-0.000764531360801,-0.601089112766,-0.799178984666,1.0,0.0,0.0,0.0,1.0,0.0,0.0,0.0,1.0,-0.00163715542294,0.00183044280857,0.00152916787192,1.21846967915e-07,0.0,0.0,0.0,1.21846967915e-07,0.0,0.0,0.0,1.21846967915e-07,-0.0402557887137,-0.0318092778325,9.79490280151,9e-08,0.0,0.0,0.0,9e-08,0.0,0.0,0.0,9e-08
1560469170181720818,11824,1560469170179004480,base_link,0.00210294964556,-0.00076412034671,-0.60109480259,-0.799174559247,1.0,0.0,0.0,0.0,1.0,0.0,0.0,0.0,1.0,0.00216672220267,-0.00189905217849,-9.59946482908e-05,1.21846967915e-07,0.0,0.0,0.0,1.21846967915e-07,0.0,0.0,0.0,1.21846967915e-07,-0.0581290200353,-0.0115705020726,9.74771404266,9e-08,0.0,0.0,0.0,9e-08,0.0,0.0,0.0,9e-08
1560469170203733101,11825,1560469170199004480,base_link,0.00209577426808,-0.000766235797465,-0.601098374536,-0.799171998826,1.0,0.0,0.0,0.0,1.0,0.0,0.0,0.0,1.0,-0.00121334020514,0.00235368823633,0.000668759050313,1.21846967915e-07,0.0,0.0,0.0,1.21846967915e-07,0.0,0.0,0.0,1.21846967915e-07,-0.029396481812,-0.0528008528054,9.8551530838,9e-08,0.0,0.0,0.0,9e-08,0.0,0.0,0.0,9e-08
1560469170220607760,11826,1560469170214999872,base_link,0.0021050770736,-0.000766958673539,-0.601100481878,-0.799170312952,1.0,0.0,0.0,0.0,1.0,0.0,0.0,0.0,1.0,0.00123234512284,0.00033154382254,0.0010770825902,1.21846967915e-07,0.0,0.0,0.0,1.21846967915e-07,0.0,0.0,0.0,1.21846967915e-07,-0.0436355806887,-0.0273058302701,9.75602817535,9e-08,0.0,0.0,0.0,9e-08,0.0,0.0,0.0,9e-08
1560469170242352239,11827,1560469170238999872,base_link,0.00209959954733,-0.000763164880947,-0.601114147994,-0.799160102878,1.0,0.0,0.0,0.0,1.0,0.0,0.0,0.0,1.0,0.000478493340779,-0.0012580207549,0.000987734994851,1.21846967915e-07,0.0,0.0,0.0,1.21846967915e-07,0.0,0.0,0.0,1.21846967915e-07,-0.0518249608576,-0.0173986926675,9.8272485733,9e-08,0.0,0.0,0.0,9e-08,0.0,0.0,0.0,9e-08
1560469170260618612,11828,1560469170254999872,base_link,0.00210989000497,-0.000762704187904,-0.601125622473,-0.799151494384,1.0,0.0,0.0,0.0,1.0,0.0,0.0,0.0,1.0,0.000498172477819,0.00203930796124,0.00203583296388,1.21846967915e-07,0.0,0.0,0.0,1.21846967915e-07,0.0,0.0,0.0,1.21846967915e-07,-0.0255541279912,-0.0303994417191,9.79189968109,9e-08,0.0,0.0,0.0,9e-08,0.0,0.0,0.0,9e-08
1560469170281597999,11829,1560469170274999872,base_link,0.00210485662582,-0.000766745140483,-0.601134241504,-0.799144982696,1.0,0.0,0.0,0.0,1.0,0.0,0.0,0.0,1.0,-3.4375640098e-05,0.00129228737205,0.00193746306468,1.21846967915e-07,0.0,0.0,0.0,1.21846967915e-07,0.0,0.0,0.0,1.21846967915e-07,0.0178621709347,-0.0251110009849,9.79962348938,9e-08,0.0,0.0,0.0,9e-08,0.0,0.0,0.0,9e-08
1560469170301948850,11830,1560469170298999872,base_link,0.0021096900544,-0.000768315727975,-0.6011473281,-0.79913509926,1.0,0.0,0.0,0.0,1.0,0.0,0.0,0.0,1.0,0.00240909028798,0.000547383271623,0.00149410462473,1.21846967915e-07,0.0,0.0,0.0,1.21846967915e-07,0.0,0.0,0.0,1.21846967915e-07,-0.0335346981883,-0.0211927592754,9.73583030701,9e-08,0.0,0.0,0.0,9e-08,0.0,0.0,0.0,9e-08
1560469170321754462,11831,1560469170314997568,base_link,0.00210390519364,-0.000765247116363,-0.601158486478,-0.799126722574,1.0,0.0,0.0,0.0,1.0,0.0,0.0,0.0,1.0,-0.000353418639861,-0.000301515625324,0.00205808482133,1.21846967915e-07,0.0,0.0,0.0,1.21846967915e-07,0.0,0.0,0.0,1.21846967915e-07,-0.0273645073175,-0.0292242132127,9.83583641052,9e-08,0.0,0.0,0.0,9e-08,0.0,0.0,0.0,9e-08
1560469170342211995,11832,1560469170338997568,base_link,0.00210495203246,-0.000772074164959,-0.601172732113,-0.799116017274,1.0,0.0,0.0,0.0,1.0,0.0,0.0,0.0,1.0,0.000589007162489,0.00150164111983,0.000868227914907,1.21846967915e-07,0.0,0.0,0.0,1.21846967915e-07,0.0,0.0,0.0,1.21846967915e-07,-0.0492870770395,-0.00317602232098,9.80029010773,9e-08,0.0,0.0,0.0,9e-08,0.0,0.0,0.0,9e-08
1560469170360688548,11833,1560469170354997568,base_link,0.00209856472696,-0.000771343592146,-0.601182362668,-0.799108831236,1.0,0.0,0.0,0.0,1.0,0.0,0.0,0.0,1.0,0.00114387529902,-0.0012571135303,0.00257468107156,1.21846967915e-07,0.0,0.0,0.0,1.21846967915e-07,0.0,0.0,0.0,1.21846967915e-07,-0.0157557912171,-0.0104945786297,9.77757358551,9e-08,0.0,0.0,0.0,9e-08,0.0,0.0,0.0,9e-08
1560469170382129350,11834,1560469170378997568,base_link,0.00209815190187,-0.000765345157177,-0.601186872381,-0.799105333048,1.0,0.0,0.0,0.0,1.0,0.0,0.0,0.0,1.0,0.000369472516468,-0.000417924195062,0.000344039784977,1.21846967915e-07,0.0,0.0,0.0,1.21846967915e-07,0.0,0.0,0.0,1.21846967915e-07,-0.00169922783971,-0.0191470757127,9.75703430176,9e-08,0.0,0.0,0.0,9e-08,0.0,0.0,0.0,9e-08
1560469170404189548,11835,1560469170398997568,base_link,0.00210396680871,-0.00076514565935,-0.601197524997,-0.799097293537,1.0,0.0,0.0,0.0,1.0,0.0,0.0,0.0,1.0,0.00167121714912,-0.000304364715703,0.00192516634706,1.21846967915e-07,0.0,0.0,0.0,1.21846967915e-07,0.0,0.0,0.0,1.21846967915e-07,-0.0481573939323,-0.0179665647447,9.81981182098,9e-08,0.0,0.0,0.0,9e-08,0.0,0.0,0.0,9e-08
1560469170422075277,11836,1560469170418995520,base_link,0.00210347397047,-0.000766469580765,-0.601207998489,-0.799089433149,1.0,0.0,0.0,0.0,1.0,0.0,0.0,0.0,1.0,0.000607102178037,0.00108137645293,0.00225075311027,1.21846967915e-07,0.0,0.0,0.0,1.21846967915e-07,0.0,0.0,0.0,1.21846967915e-07,-0.0250950530171,-0.0318680480123,9.7954826355,9e-08,0.0,0.0,0.0,9e-08,0.0,0.0,0.0,9e-08
1560469170440479423,11837,1560469170434995520,base_link,0.00210342696685,-0.000763806015184,-0.601215616532,-0.799083838155,1.0,0.0,0.0,0.0,1.0,0.0,0.0,0.0,1.0,0.000376507407054,-0.000418310053647,0.000983869889751,1.21846967915e-07,0.0,0.0,0.0,1.21846967915e-07,0.0,0.0,0.0,1.21846967915e-07,-0.0267733372748,-0.0170871838927,9.78028106689,9e-08,0.0,0.0,0.0,9e-08,0.0,0.0,0.0,9e-08
1560469170460878062,11838,1560469170454995520,base_link,0.00210296911379,-0.000762058073424,-0.601217871388,-0.799082089061,1.0,0.0,0.0,0.0,1.0,0.0,0.0,0.0,1.0,-0.000792321399786,-0.000206155353226,0.00120269600302,1.21846967915e-07,0.0,0.0,0.0,1.21846967915e-07,0.0,0.0,0.0,1.21846967915e-07,-0.0125579610467,-0.0171011835337,9.78101348877,9e-08,0.0,0.0,0.0,9e-08,0.0,0.0,0.0,9e-08
1560469170482805431,11839,1560469170478995520,base_link,0.00209915885758,-0.000760925953097,-0.601228766348,-0.799073891499,1.0,0.0,0.0,0.0,1.0,0.0,0.0,0.0,1.0,0.000471166626085,-0.00148261524737,3.55917145498e-05,1.21846967915e-07,0.0,0.0,0.0,1.21846967915e-07,0.0,0.0,0.0,1.21846967915e-07,-0.0181577056646,-0.0648634880781,9.74619674683,9e-08,0.0,0.0,0.0,9e-08,0.0,0.0,0.0,9e-08
1560469170503407066,11840,1560469170498995520,base_link,0.00210164963755,-0.000754425624895,-0.601240946788,-0.799064745633,1.0,0.0,0.0,0.0,1.0,0.0,0.0,0.0,1.0,-0.00291403732263,-0.000298609724268,0.00208807876334,1.21846967915e-07,0.0,0.0,0.0,1.21846967915e-07,0.0,0.0,0.0,1.21846967915e-07,-0.0496529452503,-0.0323017463088,9.80951881409,9e-08,0.0,0.0,0.0,9e-08,0.0,0.0,0.0,9e-08
1560469170522643950,11841,1560469170518993216,base_link,0.0021107117862,-0.000755363474592,-0.601250029433,-0.799057854623,1.0,0.0,0.0,0.0,1.0,0.0,0.0,0.0,1.0,-0.000257869949564,-0.00147743220441,0.00163231103215,1.21846967915e-07,0.0,0.0,0.0,1.21846967915e-07,0.0,0.0,0.0,1.21846967915e-07,-0.0174958147109,0.0050666667521,9.79668712616,9e-08,0.0,0.0,0.0,9e-08,0.0,0.0,0.0,9e-08
1560469170542163281,11842,1560469170538993216,base_link,0.00210711703869,-0.000748830466119,-0.601257152251,-0.799052501973,1.0,0.0,0.0,0.0,1.0,0.0,0.0,0.0,1.0,-0.00271566724405,8.75740079209e-06,0.000494324078318,1.21846967915e-07,0.0,0.0,0.0,1.21846967915e-07,0.0,0.0,0.0,1.21846967915e-07,-0.00229733809829,-0.012939888984,9.79111003876,9e-08,0.0,0.0,0.0,9e-08,0.0,0.0,0.0,9e-08
1560469170560894793,11843,1560469170554993216,base_link,0.00210962057795,-0.000750095777073,-0.601268310629,-0.799044125287,1.0,0.0,0.0,0.0,1.0,0.0,0.0,0.0,1.0,7.98806868261e-05,0.000229174736887,0.00258096028119,1.21846967915e-07,0.0,0.0,0.0,1.21846967915e-07,0.0,0.0,0.0,1.21846967915e-07,-0.0604139529169,-0.0271522216499,9.7896604538,9e-08,0.0,0.0,0.0,9e-08,0.0,0.0,0.0,9e-08
1560469170582225066,11844,1560469170578993216,base_link,0.00210610357985,-0.000750569970277,-0.601274485142,-0.799039552354,1.0,0.0,0.0,0.0,1.0,0.0,0.0,0.0,1.0,0.000272848410532,-0.00189903774299,0.000992437941022,1.21846967915e-07,0.0,0.0,0.0,1.21846967915e-07,0.0,0.0,0.0,1.21846967915e-07,-0.0425258055329,-9.79974865901e-05,9.79677009583,9e-08,0.0,0.0,0.0,9e-08,0.0,0.0,0.0,9e-08
1560469170603452040,11845,1560469170598993216,base_link,0.00210306604331,-0.000761405003067,-0.601280459458,-0.799034926737,1.0,0.0,0.0,0.0,1.0,0.0,0.0,0.0,1.0,-4.03397134505e-05,-0.000944879779126,0.00173488573637,1.21846967915e-07,0.0,0.0,0.0,1.21846967915e-07,0.0,0.0,0.0,1.21846967915e-07,-0.0434594377875,-0.0262675695121,9.78029346466,9e-08,0.0,0.0,0.0,9e-08,0.0,0.0,0.0,9e-08
1560469170622372172,11846,1560469170618991168,base_link,0.00209900471701,-0.000760847298187,-0.601291681056,-0.799026486831,1.0,0.0,0.0,0.0,1.0,0.0,0.0,0.0,1.0,-0.00237800693139,-0.00051885767607,0.0018722085515,1.21846967915e-07,0.0,0.0,0.0,1.21846967915e-07,0.0,0.0,0.0,1.21846967915e-07,-0.0208971388638,-0.00320770964026,9.82465839386,9e-08,0.0,0.0,0.0,9e-08,0.0,0.0,0.0,9e-08
1560469170642918279,11847,1560469170638991168,base_link,0.00210276842235,-0.000759996664478,-0.601300974437,-0.799019469381,1.0,0.0,0.0,0.0,1.0,0.0,0.0,0.0,1.0,-0.000259741646005,-0.00169310462661,0.00110463320743,1.21846967915e-07,0.0,0.0,0.0,1.21846967915e-07,0.0,0.0,0.0,1.21846967915e-07,-0.0265342220664,-0.0477472133934,9.75938034058,9e-08,0.0,0.0,0.0,9e-08,0.0,0.0,0.0,9e-08
1560469170662237974,11848,1560469170658991168,base_link,0.00210044767034,-0.000759939082993,-0.601310794652,-0.799012093682,1.0,0.0,0.0,0.0,1.0,0.0,0.0,0.0,1.0,-0.000380363926524,0.00106833188329,2.83847621176e-05,1.21846967915e-07,0.0,0.0,0.0,1.21846967915e-07,0.0,0.0,0.0,1.21846967915e-07,-0.014528889209,-0.0169352777302,9.83797740936,9e-08,0.0,0.0,0.0,9e-08,0.0,0.0,0.0,9e-08
1560469170682861494,11849,1560469170678991168,base_link,0.00210332308146,-0.000760009670732,-0.601320151253,-0.799005181599,1.0,0.0,0.0,0.0,1.0,0.0,0.0,0.0,1.0,-4.15787799284e-05,-0.000520783360116,0.0015219906345,1.21846967915e-07,0.0,0.0,0.0,1.21846967915e-07,0.0,0.0,0.0,1.21846967915e-07,-0.0656668171287,-0.016396984458,9.75456428528,9e-08,0.0,0.0,0.0,9e-08,0.0,0.0,0.0,9e-08
1560469170701979621,11850,1560469170698991168,base_link,0.00209393153707,-0.000750931346576,-0.601332026127,-0.79899617271,1.0,0.0,0.0,0.0,1.0,0.0,0.0,0.0,1.0,0.000812596525066,0.000862366869114,0.00182237755507,1.21846967915e-07,0.0,0.0,0.0,1.21846967915e-07,0.0,0.0,0.0,1.21846967915e-07,-0.0565144047141,-0.0411075614393,9.76110744476,9e-08,0.0,0.0,0.0,9e-08,0.0,0.0,0.0,9e-08
1560469170723635473,11851,1560469170714988864,base_link,0.00208851879512,-0.00076153243143,-0.601334280984,-0.79899450791,1.0,0.0,0.0,0.0,1.0,0.0,0.0,0.0,1.0,0.0025053746067,7.43678538129e-06,0.000952902657446,1.21846967915e-07,0.0,0.0,0.0,1.21846967915e-07,0.0,0.0,0.0,1.21846967915e-07,-0.0267925933003,-0.00660355016589,9.81148433685,9e-08,0.0,0.0,0.0,9e-08,0.0,0.0,0.0,9e-08
1560469170742672275,11852,1560469170739988864,base_link,0.00208838367002,-0.000764369235375,-0.601341846343,-0.798988881305,1.0,0.0,0.0,0.0,1.0,0.0,0.0,0.0,1.0,-0.00036928569898,0.00170990230981,0.000770732294768,1.21846967915e-07,0.0,0.0,0.0,1.21846967915e-07,0.0,0.0,0.0,1.21846967915e-07,-0.0392827093601,-0.0209019295871,9.80459308624,9e-08,0.0,0.0,0.0,9e-08,0.0,0.0,0.0,9e-08
1560469170761538809,11853,1560469170755988864,base_link,0.00209268997488,-0.000757840342805,-0.601343479533,-0.79898758529,1.0,0.0,0.0,0.0,1.0,0.0,0.0,0.0,1.0,0.000904493732378,-0.000301990075968,0.000117153307656,1.21846967915e-07,0.0,0.0,0.0,1.21846967915e-07,0.0,0.0,0.0,1.21846967915e-07,-0.047618355602,0.0135964713991,9.78169536591,9e-08,0.0,0.0,0.0,9e-08,0.0,0.0,0.0,9e-08
1560469170781084531,11854,1560469170775988864,base_link,0.00208433390941,-0.000754143397414,-0.601355965537,-0.798978218153,1.0,0.0,0.0,0.0,1.0,0.0,0.0,0.0,1.0,0.000920308346394,-9.60242468864e-05,0.00150253437459,1.21846967915e-07,0.0,0.0,0.0,1.21846967915e-07,0.0,0.0,0.0,1.21846967915e-07,-0.044263318181,-0.0286971665919,9.78492641449,9e-08,0.0,0.0,0.0,9e-08,0.0,0.0,0.0,9e-08
1560469170800583590,11855,1560469170795988864,base_link,0.0020809932366,-0.000753243702139,-0.601360664911,-0.798974614597,1.0,0.0,0.0,0.0,1.0,0.0,0.0,0.0,1.0,-0.000480587041238,0.00117544853128,0.00045427781879,1.21846967915e-07,0.0,0.0,0.0,1.21846967915e-07,0.0,0.0,0.0,1.21846967915e-07,-0.0384709127247,-0.0299962759018,9.7933511734,9e-08,0.0,0.0,0.0,9e-08,0.0,0.0,0.0,9e-08
1560469170820862320,11856,1560469170815985792,base_link,0.00208574615811,-0.00075425238653,-0.601365585555,-0.798970958358,1.0,0.0,0.0,0.0,1.0,0.0,0.0,0.0,1.0,0.000380248762667,0.0021357787773,0.000973928021267,1.21846967915e-07,0.0,0.0,0.0,1.21846967915e-07,0.0,0.0,0.0,1.21846967915e-07,-0.00986788794398,-0.0222108587623,9.82653141022,9e-08,0.0,0.0,0.0,9e-08,0.0,0.0,0.0,9e-08
1560469170843802710,11857,1560469170839985792,base_link,0.00208734691517,-0.000757878497227,-0.60137822961,-0.798961348877,1.0,0.0,0.0,0.0,1.0,0.0,0.0,0.0,1.0,-0.000247128220508,0.00278097880073,0.00203995243646,1.21846967915e-07,0.0,0.0,0.0,1.21846967915e-07,0.0,0.0,0.0,1.21846967915e-07,-0.0423686355352,-0.0284374170005,9.81990337372,9e-08,0.0,0.0,0.0,9e-08,0.0,0.0,0.0,9e-08
1560469170862887568,11858,1560469170859985792,base_link,0.00208930662015,-0.000752466701938,-0.601386416635,-0.798955269194,1.0,0.0,0.0,0.0,1.0,0.0,0.0,0.0,1.0,5.28075906914e-05,0.00149464071728,0.000443480181275,1.21846967915e-07,0.0,0.0,0.0,1.21846967915e-07,0.0,0.0,0.0,1.21846967915e-07,-0.0010049380362,-0.0313643962145,9.80843162537,9e-08,0.0,0.0,0.0,9e-08,0.0,0.0,0.0,9e-08
1560469170882863488,11859,1560469170879985792,base_link,0.00208361066291,-0.000748774448676,-0.601390336292,-0.798952361061,1.0,0.0,0.0,0.0,1.0,0.0,0.0,0.0,1.0,-4.76168061141e-05,0.000112927518785,0.0011977001559,1.21846967915e-07,0.0,0.0,0.0,1.21846967915e-07,0.0,0.0,0.0,1.21846967915e-07,-0.0402657911181,-0.020276915282,9.83756065369,9e-08,0.0,0.0,0.0,9e-08,0.0,0.0,0.0,9e-08
1560469170903386938,11860,1560469170899985792,base_link,0.00207343857864,-0.00075176181236,-0.601402010969,-0.79894355237,1.0,0.0,0.0,0.0,1.0,0.0,0.0,0.0,1.0,0.00261840503663,0.000115432951134,0.00105413375422,1.21846967915e-07,0.0,0.0,0.0,1.21846967915e-07,0.0,0.0,0.0,1.21846967915e-07,-0.00899481773376,-0.0486416406929,9.79020595551,9e-08,0.0,0.0,0.0,9e-08,0.0,0.0,0.0,9e-08
1560469170922545475,11861,1560469170919982976,base_link,0.00207861568513,-0.000746782598494,-0.601401694868,-0.798943784178,1.0,0.0,0.0,0.0,1.0,0.0,0.0,0.0,1.0,3.93947702833e-05,-0.000639383913949,-0.00135654909536,1.21846967915e-07,0.0,0.0,0.0,1.21846967915e-07,0.0,0.0,0.0,1.21846967915e-07,-0.029049243778,-0.00490591302514,9.78729724884,9e-08,0.0,0.0,0.0,9e-08,0.0,0.0,0.0,9e-08
1560469170942889576,11862,1560469170939982976,base_link,0.00207262519385,-0.000745404964542,-0.601404244752,-0.798941824349,1.0,0.0,0.0,0.0,1.0,0.0,0.0,0.0,1.0,-0.000487809971673,-0.000744190823752,3.70628549717e-05,1.21846967915e-07,0.0,0.0,0.0,1.21846967915e-07,0.0,0.0,0.0,1.21846967915e-07,-0.0110222361982,-0.0166360326111,9.81819915771,9e-08,0.0,0.0,0.0,9e-08,0.0,0.0,0.0,9e-08
1560469170960562975,11863,1560469170955982976,base_link,0.00207516297743,-0.000747851704344,-0.601407900991,-0.798939179634,1.0,0.0,0.0,0.0,1.0,0.0,0.0,0.0,1.0,-0.000366436637705,0.000538467196748,0.0010933810845,1.21846967915e-07,0.0,0.0,0.0,1.21846967915e-07,0.0,0.0,0.0,1.21846967915e-07,-0.041555237025,-0.0410566367209,9.77907657623,9e-08,0.0,0.0,0.0,9e-08,0.0,0.0,0.0,9e-08
1560469170983052098,11864,1560469170979982976,base_link,0.00207338951707,-0.000751573139358,-0.601419691572,-0.798930255039,1.0,0.0,0.0,0.0,1.0,0.0,0.0,0.0,1.0,0.000809784454759,-0.000312895514071,0.00140249496326,1.21846967915e-07,0.0,0.0,0.0,1.21846967915e-07,0.0,0.0,0.0,1.21846967915e-07,-0.0239710882306,-0.0366293676198,9.80875778198,9e-08,0.0,0.0,0.0,9e-08,0.0,0.0,0.0,9e-08
1560469171004847134,11865,1560469170999982976,base_link,0.00207941334717,-0.000751959581507,-0.601429659302,-0.798922731827,1.0,0.0,0.0,0.0,1.0,0.0,0.0,0.0,1.0,6.09100679867e-05,0.00203106203116,0.000863165128976,1.21846967915e-07,0.0,0.0,0.0,1.21846967915e-07,0.0,0.0,0.0,1.21846967915e-07,-0.028252825141,-0.0195313990116,9.80853176117,9e-08,0.0,0.0,0.0,9e-08,0.0,0.0,0.0,9e-08
1560469171022873006,11866,1560469171019979904,base_link,0.00207331057405,-0.000756232259434,-0.601424896708,-0.798926314309,1.0,0.0,0.0,0.0,1.0,0.0,0.0,0.0,1.0,0.000681709847413,0.000336612021783,0.000426679675002,1.21846967915e-07,0.0,0.0,0.0,1.21846967915e-07,0.0,0.0,0.0,1.21846967915e-07,0.00573197007179,-0.0271948315203,9.79291439056,9e-08,0.0,0.0,0.0,9e-08,0.0,0.0,0.0,9e-08
1560469171043601630,11867,1560469171039979904,base_link,0.00208095388857,-0.000753467771908,-0.601434337602,-0.798919317932,1.0,0.0,0.0,0.0,1.0,0.0,0.0,0.0,1.0,-0.00153410132043,0.000427901250077,0.00132185302209,1.21846967915e-07,0.0,0.0,0.0,1.21846967915e-07,0.0,0.0,0.0,1.21846967915e-07,-0.030855294317,-0.0262467302382,9.83255767822,9e-08,0.0,0.0,0.0,9e-08,0.0,0.0,0.0,9e-08
1560469171062717138,11868,1560469171059979904,base_link,0.00207730114797,-0.000756738885956,-0.601437266808,-0.798916978782,1.0,0.0,0.0,0.0,1.0,0.0,0.0,0.0,1.0,-0.000367700238712,-0.00127201154828,0.000995222828351,1.21846967915e-07,0.0,0.0,0.0,1.21846967915e-07,0.0,0.0,0.0,1.21846967915e-07,-0.032658457756,-0.0147849805653,9.80265617371,9e-08,0.0,0.0,0.0,9e-08,0.0,0.0,0.0,9e-08
1560469171080825591,11869,1560469171075979904,base_link,0.00207021706123,-0.000760792021607,-0.601437635593,-0.798916862878,1.0,0.0,0.0,0.0,1.0,0.0,0.0,0.0,1.0,-0.00113120675087,0.00180733832531,-0.000393221824197,1.21846967915e-07,0.0,0.0,0.0,1.21846967915e-07,0.0,0.0,0.0,1.21846967915e-07,-0.0244399569929,-0.0237754248083,9.81164646149,9e-08,0.0,0.0,0.0,9e-08,0.0,0.0,0.0,9e-08
1560469171103978929,11870,1560469171099979904,base_link,0.00206600188247,-0.000761515926658,-0.601445654031,-0.798910783195,1.0,0.0,0.0,0.0,1.0,0.0,0.0,0.0,1.0,0.000383199891075,0.000321840983815,0.00118390331045,1.21846967915e-07,0.0,0.0,0.0,1.21846967915e-07,0.0,0.0,0.0,1.21846967915e-07,-0.0238254070282,-0.045061558485,9.82283496857,9e-08,0.0,0.0,0.0,9e-08,0.0,0.0,0.0,9e-08
1560469171123057259,11871,1560469171119976576,base_link,0.00206696393367,-0.000767508763999,-0.601453472271,-0.798904819416,1.0,0.0,0.0,0.0,1.0,0.0,0.0,0.0,1.0,-0.00110547116492,0.00138268771116,0.00109860382508,1.21846967915e-07,0.0,0.0,0.0,1.21846967915e-07,0.0,0.0,0.0,1.21846967915e-07,-0.0446276366711,-0.0233456678689,9.76413345337,9e-08,0.0,0.0,0.0,9e-08,0.0,0.0,0.0,9e-08
1560469171142806383,11872,1560469171139976576,base_link,0.00206911239397,-0.000763068568813,-0.60146398791,-0.798897001176,1.0,0.0,0.0,0.0,1.0,0.0,0.0,0.0,1.0,0.000793296378106,-0.00149311264977,0.000451034720754,1.21846967915e-07,0.0,0.0,0.0,1.21846967915e-07,0.0,0.0,0.0,1.21846967915e-07,-0.0412509851158,-0.00287929549813,9.8036775589,9e-08,0.0,0.0,0.0,9e-08,0.0,0.0,0.0,9e-08
1560469171163118358,11873,1560469171159976576,base_link,0.00206588848933,-0.000762128496527,-0.601473850272,-0.798889499037,1.0,0.0,0.0,0.0,1.0,0.0,0.0,0.0,1.0,-0.000886513618752,-9.52450791374e-05,0.00174464413431,1.21846967915e-07,0.0,0.0,0.0,1.21846967915e-07,0.0,0.0,0.0,1.21846967915e-07,-0.0235102772713,0.0111021324992,9.84542274475,9e-08,0.0,0.0,0.0,9e-08,0.0,0.0,0.0,9e-08
1560469171182771625,11874,1560469171179976576,base_link,0.00207283617505,-0.000761728060308,-0.601477053433,-0.798887054519,1.0,0.0,0.0,0.0,1.0,0.0,0.0,0.0,1.0,-0.000384649640182,-0.00042775447946,-0.000280350825051,1.21846967915e-07,0.0,0.0,0.0,1.21846967915e-07,0.0,0.0,0.0,1.21846967915e-07,-0.047815553844,-0.0411690026522,9.81478214264,9e-08,0.0,0.0,0.0,9e-08,0.0,0.0,0.0,9e-08
1560469171204728980,11875,1560469171199976576,base_link,0.00207347825595,-0.000760762634059,-0.601481268118,-0.798883935653,1.0,0.0,0.0,0.0,1.0,0.0,0.0,0.0,1.0,-0.000374605850084,-0.000424157944508,0.000463834410766,1.21846967915e-07,0.0,0.0,0.0,1.21846967915e-07,0.0,0.0,0.0,1.21846967915e-07,-0.0266500413418,-0.0061459094286,9.86834812164,9e-08,0.0,0.0,0.0,9e-08,0.0,0.0,0.0,9e-08
1560469171222875641,11876,1560469171219974528,base_link,0.0020700029931,-0.000769325482501,-0.601489866075,-0.798877445038,1.0,0.0,0.0,0.0,1.0,0.0,0.0,0.0,1.0,-3.92885995097e-05,-0.000526274321601,0.00141618773341,1.21846967915e-07,0.0,0.0,0.0,1.21846967915e-07,0.0,0.0,0.0,1.21846967915e-07,-0.0330710709095,-0.0133544392884,9.80450630188,9e-08,0.0,0.0,0.0,9e-08,0.0,0.0,0.0,9e-08
1560469171241638937,11877,1560469171237974528,base_link,0.00207017293874,-0.000776210524173,-0.601496799231,-0.798872113462,1.0,0.0,0.0,0.0,1.0,0.0,0.0,0.0,1.0,0.000375850911951,0.00223562098108,0.000860491010826,1.21846967915e-07,0.0,0.0,0.0,1.21846967915e-07,0.0,0.0,0.0,1.21846967915e-07,-0.0546351596713,0.0113390646875,9.79807853699,9e-08,0.0,0.0,0.0,9e-08,0.0,0.0,0.0,9e-08
1560469171260600274,11878,1560469171257974528,base_link,0.0020668302903,-0.000779552514074,-0.601509833144,-0.798862367003,1.0,0.0,0.0,0.0,1.0,0.0,0.0,0.0,1.0,-0.000672904541716,-0.000735993147828,0.00206081965007,1.21846967915e-07,0.0,0.0,0.0,1.21846967915e-07,0.0,0.0,0.0,1.21846967915e-07,-0.0726134479046,-0.0304526053369,9.80757522583,9e-08,0.0,0.0,0.0,9e-08,0.0,0.0,0.0,9e-08
1560469171280510593,11879,1560469171277974528,base_link,0.0020637694989,-0.00077775160064,-0.60151959014,-0.798854970231,1.0,0.0,0.0,0.0,1.0,0.0,0.0,0.0,1.0,-0.000258742249571,-0.000740271760151,0.00120428483933,1.21846967915e-07,0.0,0.0,0.0,1.21846967915e-07,0.0,0.0,0.0,1.21846967915e-07,-0.0179679952562,0.00311101600528,9.86766719818,9e-08,0.0,0.0,0.0,9e-08,0.0,0.0,0.0,9e-08
1560469171302155738,11880,1560469171297974528,base_link,0.00205255551491,-0.000781798315482,-0.60153202346,-0.798845740071,1.0,0.0,0.0,0.0,1.0,0.0,0.0,0.0,1.0,0.00114026060328,0.000967376399785,0.00234764395282,1.21846967915e-07,0.0,0.0,0.0,1.21846967915e-07,0.0,0.0,0.0,1.21846967915e-07,-0.0421821027994,-0.0185878463089,9.80290031433,9e-08,0.0,0.0,0.0,9e-08,0.0,0.0,0.0,9e-08
1560469171320743909,11881,1560469171317972736,base_link,0.00204707103277,-0.000784678254093,-0.601535405745,-0.798843200724,1.0,0.0,0.0,0.0,1.0,0.0,0.0,0.0,1.0,0.000802239694167,-0.000850077311043,0.00108400173485,1.21846967915e-07,0.0,0.0,0.0,1.21846967915e-07,0.0,0.0,0.0,1.21846967915e-07,-0.0420982949436,-0.0234814845026,9.76955509186,9e-08,0.0,0.0,0.0,9e-08,0.0,0.0,0.0,9e-08
1560469171340932199,11882,1560469171337972736,base_link,0.00204636951823,-0.00077941368466,-0.601540357999,-0.798839512874,1.0,0.0,0.0,0.0,1.0,0.0,0.0,0.0,1.0,0.00110232527368,0.00150884082541,-0.000200038222829,1.21846967915e-07,0.0,0.0,0.0,1.21846967915e-07,0.0,0.0,0.0,1.21846967915e-07,-0.0454627349973,-0.0164846070111,9.81893730164,9e-08,0.0,0.0,0.0,9e-08,0.0,0.0,0.0,9e-08
1560469171360522930,11883,1560469171357972736,base_link,0.00204272303381,-0.000780392405276,-0.601552327704,-0.798830493449,1.0,0.0,0.0,0.0,1.0,0.0,0.0,0.0,1.0,-0.0012172232382,0.00138951721601,0.00141524802893,1.21846967915e-07,0.0,0.0,0.0,1.21846967915e-07,0.0,0.0,0.0,1.21846967915e-07,-0.0258556641638,-0.0228006355464,9.81107521057,9e-08,0.0,0.0,0.0,9e-08,0.0,0.0,0.0,9e-08
1560469171381926908,11884,1560469171377972736,base_link,0.00204973542153,-0.000779253246754,-0.60156516142,-0.798820694306,1.0,0.0,0.0,0.0,1.0,0.0,0.0,0.0,1.0,0.00146829010919,1.65292876773e-05,0.00266799028032,1.21846967915e-07,0.0,0.0,0.0,1.21846967915e-07,0.0,0.0,0.0,1.21846967915e-07,-0.0176365934312,0.00556880608201,9.7983341217,9e-08,0.0,0.0,0.0,9e-08,0.0,0.0,0.0,9e-08
1560469171400579092,11885,1560469171397972736,base_link,0.00204537079432,-0.000781055806549,-0.601578121576,-0.798811021605,1.0,0.0,0.0,0.0,1.0,0.0,0.0,0.0,1.0,0.000166513753356,0.000530965917278,0.00139780214522,1.21846967915e-07,0.0,0.0,0.0,1.21846967915e-07,0.0,0.0,0.0,1.21846967915e-07,-0.0165405496955,-0.0603948049247,9.79394245148,9e-08,0.0,0.0,0.0,9e-08,0.0,0.0,0.0,9e-08
1560469171420585227,11886,1560469171417970688,base_link,0.002039860382,-0.000772972213873,-0.601583958914,-0.798806617259,1.0,0.0,0.0,0.0,1.0,0.0,0.0,0.0,1.0,-0.000484675867483,-0.000641582941171,0.000568832096178,1.21846967915e-07,0.0,0.0,0.0,1.21846967915e-07,0.0,0.0,0.0,1.21846967915e-07,-0.02614345029,-0.00856117904186,9.82841491699,9e-08,0.0,0.0,0.0,9e-08,0.0,0.0,0.0,9e-08
1560469171441456474,11887,1560469171437970688,base_link,0.00204208774416,-0.000763628290485,-0.60159374752,-0.798799273171,1.0,0.0,0.0,0.0,1.0,0.0,0.0,0.0,1.0,0.000380051467801,-0.00127489306033,0.0011972382199,1.21846967915e-07,0.0,0.0,0.0,1.21846967915e-07,0.0,0.0,0.0,1.21846967915e-07,0.00624680519104,-0.0399460047483,9.83106708527,9e-08,0.0,0.0,0.0,9e-08,0.0,0.0,0.0,9e-08
1560469171461918231,11888,1560469171457970688,base_link,0.00204787095855,-0.0007617173178,-0.601602988216,-0.798792308404,1.0,0.0,0.0,0.0,1.0,0.0,0.0,0.0,1.0,0.000590768933762,0.00106412474997,0.00214374274947,1.21846967915e-07,0.0,0.0,0.0,1.21846967915e-07,0.0,0.0,0.0,1.21846967915e-07,-0.0105373822153,-0.0672309100628,9.79323673248,9e-08,0.0,0.0,0.0,9e-08,0.0,0.0,0.0,9e-08
1560469171480640091,11889,1560469171477970688,base_link,0.00204681387114,-0.000763067786791,-0.601608635894,-0.798788093719,1.0,0.0,0.0,0.0,1.0,0.0,0.0,0.0,1.0,-0.000574101344682,0.000956737028901,0.00151341920719,1.21846967915e-07,0.0,0.0,0.0,1.21846967915e-07,0.0,0.0,0.0,1.21846967915e-07,-0.00547844171524,-0.0335022844374,9.77558708191,9e-08,0.0,0.0,0.0,9e-08,0.0,0.0,0.0,9e-08
1560469171501659065,11890,1560469171497970688,base_link,0.00205239445962,-0.000761340012956,-0.601618909188,-0.798780264942,1.0,0.0,0.0,0.0,1.0,0.0,0.0,0.0,1.0,0.000266968214419,0.00265946588479,0.000753005442675,1.21846967915e-07,0.0,0.0,0.0,1.21846967915e-07,0.0,0.0,0.0,1.21846967915e-07,-0.0254676416516,-0.00104966387153,9.81079769135,9e-08,0.0,0.0,0.0,9e-08,0.0,0.0,0.0,9e-08
1560469171520570051,11891,1560469171517968640,base_link,0.00206058082639,-0.00076982074913,-0.601619794272,-0.798779632739,1.0,0.0,0.0,0.0,1.0,0.0,0.0,0.0,1.0,-6.59759389237e-05,0.000634930678643,-0.000183628580999,1.21846967915e-07,0.0,0.0,0.0,1.21846967915e-07,0.0,0.0,0.0,1.21846967915e-07,-0.0282601341605,-0.0205113403499,9.80580806732,9e-08,0.0,0.0,0.0,9e-08,0.0,0.0,0.0,9e-08
1560469171540944301,11892,1560469171537968640,base_link,0.00205957671066,-0.000772754729549,-0.601629024432,-0.798772594216,1.0,0.0,0.0,0.0,1.0,0.0,0.0,0.0,1.0,-0.000265359471086,0.000104355916847,0.000455467001302,1.21846967915e-07,0.0,0.0,0.0,1.21846967915e-07,0.0,0.0,0.0,1.21846967915e-07,-0.00696991384029,-0.0234870053828,9.8023557663,9e-08,0.0,0.0,0.0,9e-08,0.0,0.0,0.0,9e-08
1560469171560779416,11893,1560469171557968640,base_link,0.00206347488255,-0.000774602358484,-0.601633565755,-0.798769148711,1.0,0.0,0.0,0.0,1.0,0.0,0.0,0.0,1.0,-0.00177858129609,-0.000233086408116,-0.00058842683211,1.21846967915e-07,0.0,0.0,0.0,1.21846967915e-07,0.0,0.0,0.0,1.21846967915e-07,-0.0160319283605,0.00279100239277,9.84006881714,9e-08,0.0,0.0,0.0,9e-08,0.0,0.0,0.0,9e-08
1560469171581474562,11894,1560469171577968640,base_link,0.00205114573575,-0.000769849190021,-0.601640140663,-0.798764259676,1.0,0.0,0.0,0.0,1.0,0.0,0.0,0.0,1.0,-0.000369966030121,-0.00181267899461,0.000683519523591,1.21846967915e-07,0.0,0.0,0.0,1.21846967915e-07,0.0,0.0,0.0,1.21846967915e-07,-0.0377325080335,-0.00180192291736,9.78012466431,9e-08,0.0,0.0,0.0,9e-08,0.0,0.0,0.0,9e-08
1560469171600689019,11895,1560469171597968640,base_link,0.00205397270269,-0.000771742011573,-0.601646020149,-0.798759897478,1.0,0.0,0.0,0.0,1.0,0.0,0.0,0.0,1.0,0.000154154971824,0.000528624397703,0.000232324935496,1.21846967915e-07,0.0,0.0,0.0,1.21846967915e-07,0.0,0.0,0.0,1.21846967915e-07,-0.0265416614711,-0.0353090651333,9.8000164032,9e-08,0.0,0.0,0.0,9e-08,0.0,0.0,0.0,9e-08
1560469171621614282,11896,1560469171618966592,base_link,0.00205777550911,-0.000771740982597,-0.601655871974,-0.798752490169,1.0,0.0,0.0,0.0,1.0,0.0,0.0,0.0,1.0,-0.00068991095759,5.37722371519e-07,0.000775930238888,1.21846967915e-07,0.0,0.0,0.0,1.21846967915e-07,0.0,0.0,0.0,1.21846967915e-07,-0.0276111252606,-0.0133048966527,9.82969093323,9e-08,0.0,0.0,0.0,9e-08,0.0,0.0,0.0,9e-08
1560469171642382235,11897,1560469171638966592,base_link,0.00206777591905,-0.000769609520979,-0.601656820279,-0.798751710452,1.0,0.0,0.0,0.0,1.0,0.0,0.0,0.0,1.0,-0.00152706133667,0.000424753758125,0.00131367356516,1.21846967915e-07,0.0,0.0,0.0,1.21846967915e-07,0.0,0.0,0.0,1.21846967915e-07,-0.0378064922988,-0.0410734526813,9.77564811707,9e-08,0.0,0.0,0.0,9e-08,0.0,0.0,0.0,9e-08
1560469171662743511,11898,1560469171658966592,base_link,0.00205596475867,-0.000767706821259,-0.601664606909,-0.798745862577,1.0,0.0,0.0,0.0,1.0,0.0,0.0,0.0,1.0,0.000373059796402,-0.001062708674,0.00065983668901,1.21846967915e-07,0.0,0.0,0.0,1.21846967915e-07,0.0,0.0,0.0,1.21846967915e-07,-0.0262608602643,-0.0385045297444,9.81999015808,9e-08,0.0,0.0,0.0,9e-08,0.0,0.0,0.0,9e-08
1560469171681721462,11899,1560469171678966592,base_link,0.00205842508095,-0.000768052557126,-0.601670381027,-0.798741521452,1.0,0.0,0.0,0.0,1.0,0.0,0.0,0.0,1.0,0.000476417830214,0.000210402358789,0.000228083546972,1.21846967915e-07,0.0,0.0,0.0,1.21846967915e-07,0.0,0.0,0.0,1.21846967915e-07,-0.0416496470571,-0.0278176628053,9.77521419525,9e-08,0.0,0.0,0.0,9e-08,0.0,0.0,0.0,9e-08
1560469171702991861,11900,1560469171698966592,base_link,0.00205022834209,-0.000768694144113,-0.601673247013,-0.798739329815,1.0,0.0,0.0,0.0,1.0,0.0,0.0,0.0,1.0,0.000476083136164,0.000950807472691,0.000443006108981,1.21846967915e-07,0.0,0.0,0.0,1.21846967915e-07,0.0,0.0,0.0,1.21846967915e-07,-0.0192735157907,-0.0106094032526,9.77787303925,9e-08,0.0,0.0,0.0,9e-08,0.0,0.0,0.0,9e-08
1560469171721843856,11901,1560469171718964288,base_link,0.00205811848732,-0.000768153026323,-0.601680538418,-0.798733892872,1.0,0.0,0.0,0.0,1.0,0.0,0.0,0.0,1.0,-0.00111476005986,-0.000966236286331,0.000464165321318,1.21846967915e-07,0.0,0.0,0.0,1.21846967915e-07,0.0,0.0,0.0,1.21846967915e-07,-0.0515310838819,-0.0240362323821,9.77927684784,9e-08,0.0,0.0,0.0,9e-08,0.0,0.0,0.0,9e-08
1560469171741980092,11902,1560469171738964288,base_link,0.00205849826171,-0.000764182867279,-0.601683235816,-0.798731869823,1.0,0.0,0.0,0.0,1.0,0.0,0.0,0.0,1.0,-0.000475821696455,-0.00223431759514,0.000889392686076,1.21846967915e-07,0.0,0.0,0.0,1.21846967915e-07,0.0,0.0,0.0,1.21846967915e-07,-0.0293292328715,-0.0218715183437,9.8072719574,9e-08,0.0,0.0,0.0,9e-08,0.0,0.0,0.0,9e-08
1560469171762016056,11903,1560469171758964288,base_link,0.00205773418544,-0.000761141873377,-0.60169427829,-0.798723440454,1.0,0.0,0.0,0.0,1.0,0.0,0.0,0.0,1.0,-0.000794215477072,-0.000637088844087,0.000995845417492,1.21846967915e-07,0.0,0.0,0.0,1.21846967915e-07,0.0,0.0,0.0,1.21846967915e-07,-0.0553998500109,0.0038042627275,9.81974601746,9e-08,0.0,0.0,0.0,9e-08,0.0,0.0,0.0,9e-08
1560469171782592939,11904,1560469171778964288,base_link,0.00205959296847,-0.00075602329503,-0.601699304302,-0.798719678847,1.0,0.0,0.0,0.0,1.0,0.0,0.0,0.0,1.0,-0.00260944687761,0.000739689159673,0.000695711176377,1.21846967915e-07,0.0,0.0,0.0,1.21846967915e-07,0.0,0.0,0.0,1.21846967915e-07,-0.0256295390427,-0.026138741523,9.83212566376,9e-08,0.0,0.0,0.0,9e-08,0.0,0.0,0.0,9e-08
1560469171801806333,11905,1560469171798964288,base_link,0.00205783560129,-0.000761409242448,-0.601708365874,-0.798712808911,1.0,0.0,0.0,0.0,1.0,0.0,0.0,0.0,1.0,-0.000269016600214,-0.00107314484194,0.000453619170003,1.21846967915e-07,0.0,0.0,0.0,1.21846967915e-07,0.0,0.0,0.0,1.21846967915e-07,-0.0413083992898,-0.049243927002,9.79925632477,9e-08,0.0,0.0,0.0,9e-08,0.0,0.0,0.0,9e-08
1560469171822803872,11906,1560469171818961728,base_link,0.00205124521713,-0.000767226824631,-0.601720440946,-0.798703852706,1.0,0.0,0.0,0.0,1.0,0.0,0.0,0.0,1.0,0.00165608339012,-0.000852459925227,0.000644535059109,1.21846967915e-07,0.0,0.0,0.0,1.21846967915e-07,0.0,0.0,0.0,1.21846967915e-07,-0.0248437300324,0.000801771879197,9.81960487366,9e-08,0.0,0.0,0.0,9e-08,0.0,0.0,0.0,9e-08
1560469171840964085,11907,1560469171838961728,base_link,0.00205069397422,-0.000761848532793,-0.601729407688,-0.798696993306,1.0,0.0,0.0,0.0,1.0,0.0,0.0,0.0,1.0,-0.000685289618559,-0.000319947430398,0.00195240986068,1.21846967915e-07,0.0,0.0,0.0,1.21846967915e-07,0.0,0.0,0.0,1.21846967915e-07,-0.046761572361,-0.00741609185934,9.85854148865,9e-08,0.0,0.0,0.0,9e-08,0.0,0.0,0.0,9e-08
1560469171862254075,11908,1560469171858961728,base_link,0.00205217022521,-0.000765917555831,-0.601738753752,-0.798689923172,1.0,0.0,0.0,0.0,1.0,0.0,0.0,0.0,1.0,0.000898845377378,0.00148495833855,0.000862161861733,1.21846967915e-07,0.0,0.0,0.0,1.21846967915e-07,0.0,0.0,0.0,1.21846967915e-07,-0.053927551955,-0.0318166129291,9.85198688507,9e-08,0.0,0.0,0.0,9e-08,0.0,0.0,0.0,9e-08
1560469171882382818,11909,1560469171878961728,base_link,0.00205226880109,-0.000760774858291,-0.601739512395,-0.798689501704,1.0,0.0,0.0,0.0,1.0,0.0,0.0,0.0,1.0,-0.000380928628147,0.000203562842216,0.000880681909621,1.21846967915e-07,0.0,0.0,0.0,1.21846967915e-07,0.0,0.0,0.0,1.21846967915e-07,-0.0783363729715,0.00360878929496,9.84804821014,9e-08,0.0,0.0,0.0,9e-08,0.0,0.0,0.0,9e-08
1560469171902891906,11910,1560469171898961728,base_link,0.00205452032361,-0.000768278026302,-0.601744095865,-0.798685929758,1.0,0.0,0.0,0.0,1.0,0.0,0.0,0.0,1.0,0.00176381110214,0.00255153002217,0.00190516328439,1.21846967915e-07,0.0,0.0,0.0,1.21846967915e-07,0.0,0.0,0.0,1.21846967915e-07,-0.0813364982605,-0.0167632997036,9.82375907898,9e-08,0.0,0.0,0.0,9e-08,0.0,0.0,0.0,9e-08
1560469171921468727,11911,1560469171918959680,base_link,0.00205772261975,-0.000759817910803,-0.601755191023,-0.798677616292,1.0,0.0,0.0,0.0,1.0,0.0,0.0,0.0,1.0,-0.00110528001096,-0.000102140416857,0.00121144740842,1.21846967915e-07,0.0,0.0,0.0,1.21846967915e-07,0.0,0.0,0.0,1.21846967915e-07,-0.0118422470987,-0.00636002793908,9.80420875549,9e-08,0.0,0.0,0.0,9e-08,0.0,0.0,0.0,9e-08
1560469171941917286,11912,1560469171938959680,base_link,0.0020668982027,-0.000764255759924,-0.601767624343,-0.798668301839,1.0,0.0,0.0,0.0,1.0,0.0,0.0,0.0,1.0,7.00001983205e-05,0.00170318572782,0.00192887301091,1.21846967915e-07,0.0,0.0,0.0,1.21846967915e-07,0.0,0.0,0.0,1.21846967915e-07,-0.00582494586706,-0.0478537194431,9.77785110474,9e-08,0.0,0.0,0.0,9e-08,0.0,0.0,0.0,9e-08
1560469171961284931,11913,1560469171958959680,base_link,0.00205218212017,-0.000764881294889,-0.601778845942,-0.798659777639,1.0,0.0,0.0,0.0,1.0,0.0,0.0,0.0,1.0,0.00143524853047,-0.000959692231845,0.000544269976672,1.21846967915e-07,0.0,0.0,0.0,1.21846967915e-07,0.0,0.0,0.0,1.21846967915e-07,-0.00403621420264,-0.0204206183553,9.84622192383,9e-08,0.0,0.0,0.0,9e-08,0.0,0.0,0.0,9e-08
1560469171982699128,11914,1560469171978959680,base_link,0.00206673788827,-0.000772418377942,-0.60178606359,-0.798654245865,1.0,0.0,0.0,0.0,1.0,0.0,0.0,0.0,1.0,-0.000574687845074,0.00266213901341,0.00150921032764,1.21846967915e-07,0.0,0.0,0.0,1.21846967915e-07,0.0,0.0,0.0,1.21846967915e-07,-0.0334964208305,-0.0287893228233,9.77884674072,9e-08,0.0,0.0,0.0,9e-08,0.0,0.0,0.0,9e-08
1560469172002691025,11915,1560469171998959680,base_link,0.00206296171174,-0.000773203445313,-0.601790952624,-0.79865070553,1.0,0.0,0.0,0.0,1.0,0.0,0.0,0.0,1.0,0.000586526817642,-0.000535983068403,0.000763382646255,1.21846967915e-07,0.0,0.0,0.0,1.21846967915e-07,0.0,0.0,0.0,1.21846967915e-07,-0.0144303664565,-0.00670825690031,9.81523799896,9e-08,0.0,0.0,0.0,9e-08,0.0,0.0,0.0,9e-08
1560469172021911015,11916,1560469172018957632,base_link,0.00206160354602,-0.000777240570101,-0.601796547618,-0.798646374941,1.0,0.0,0.0,0.0,1.0,0.0,0.0,0.0,1.0,-0.0001607707527,0.000740573334042,0.000661520694848,1.21846967915e-07,0.0,0.0,0.0,1.21846967915e-07,0.0,0.0,0.0,1.21846967915e-07,-0.0380084775388,-0.0315223895013,9.7966299057,9e-08,0.0,0.0,0.0,9e-08,0.0,0.0,0.0,9e-08
1560469172041640656,11917,1560469172038957632,base_link,0.00205754864053,-0.000773715628304,-0.601798581204,-0.798644847118,1.0,0.0,0.0,0.0,1.0,0.0,0.0,0.0,1.0,-0.000477921479614,-0.000213747145608,0.000668122607749,1.21846967915e-07,0.0,0.0,0.0,1.21846967915e-07,0.0,0.0,0.0,1.21846967915e-07,-0.028927680105,-0.00439098477363,9.80073451996,9e-08,0.0,0.0,0.0,9e-08,0.0,0.0,0.0,9e-08
1560469172061749454,11918,1560469172058957632,base_link,0.00205769529016,-0.000775568319801,-0.601806778766,-0.798638756898,1.0,0.0,0.0,0.0,1.0,0.0,0.0,0.0,1.0,0.000162563243066,9.97119350359e-05,0.00108304759488,1.21846967915e-07,0.0,0.0,0.0,1.21846967915e-07,0.0,0.0,0.0,1.21846967915e-07,-0.0304374098778,-0.0591336227953,9.79241085052,9e-08,0.0,0.0,0.0,9e-08,0.0,0.0,0.0,9e-08
1560469172080968391,11919,1560469172078957632,base_link,0.00206453439835,-0.000766511233705,-0.601814344125,-0.798633046,1.0,0.0,0.0,0.0,1.0,0.0,0.0,0.0,1.0,-0.00101125170477,0.00052732124459,0.000673017057125,1.21846967915e-07,0.0,0.0,0.0,1.21846967915e-07,0.0,0.0,0.0,1.21846967915e-07,0.00963379815221,-0.0348422415555,9.79649829865,9e-08,0.0,0.0,0.0,9e-08,0.0,0.0,0.0,9e-08
1560469172102672136,11920,1560469172098957632,base_link,0.00207429781459,-0.000761337214142,-0.601821846264,-0.798627398322,1.0,0.0,0.0,0.0,1.0,0.0,0.0,0.0,1.0,-0.00237887026742,0.000320001097862,0.00186314294115,1.21846967915e-07,0.0,0.0,0.0,1.21846967915e-07,0.0,0.0,0.0,1.21846967915e-07,-0.0264434069395,-0.0397227182984,9.77052688599,9e-08,0.0,0.0,0.0,9e-08,0.0,0.0,0.0,9e-08
1560469172121896130,11921,1560469172118955584,base_link,0.00207243565651,-0.000753592195661,-0.601826419197,-0.798623836914,1.0,0.0,0.0,0.0,1.0,0.0,0.0,0.0,1.0,-4.32674423791e-05,-0.000639977981336,0.00141051097307,1.21846967915e-07,0.0,0.0,0.0,1.21846967915e-07,0.0,0.0,0.0,1.21846967915e-07,0.00663201883435,-0.0665830373764,9.82114982605,9e-08,0.0,0.0,0.0,9e-08,0.0,0.0,0.0,9e-08
1560469172142546077,11922,1560469172138955584,base_link,0.00207109173181,-0.000763004278405,-0.601831266085,-0.798620338725,1.0,0.0,0.0,0.0,1.0,0.0,0.0,0.0,1.0,-0.000889456598088,0.000213689636439,0.0017377352342,1.21846967915e-07,0.0,0.0,0.0,1.21846967915e-07,0.0,0.0,0.0,1.21846967915e-07,-0.030037689954,-0.0448862053454,9.78449630737,9e-08,0.0,0.0,0.0,9e-08,0.0,0.0,0.0,9e-08
1560469172160462391,11923,1560469172154955584,base_link,0.00206397121932,-0.000760065523538,-0.601840738589,-0.798613142151,1.0,0.0,0.0,0.0,1.0,0.0,0.0,0.0,1.0,0.000371112837456,-0.00170872313902,0.000558557454497,1.21846967915e-07,0.0,0.0,0.0,1.21846967915e-07,0.0,0.0,0.0,1.21846967915e-07,-0.0696532130241,-0.0428246892989,9.81685447693,9e-08,0.0,0.0,0.0,9e-08,0.0,0.0,0.0,9e-08
1560469172180813302,11924,1560469172174955584,base_link,0.00206247562358,-0.000765237773263,-0.601843509744,-0.798611045345,1.0,0.0,0.0,0.0,1.0,0.0,0.0,0.0,1.0,0.00122374109924,0.000420221709646,0.000646501313895,1.21846967915e-07,0.0,0.0,0.0,1.21846967915e-07,0.0,0.0,0.0,1.21846967915e-07,-0.0674649775028,-0.0435404926538,9.76677036285,9e-08,0.0,0.0,0.0,9e-08,0.0,0.0,0.0,9e-08
1560469172203205562,11925,1560469172198955584,base_link,0.00206008568324,-0.000763850960847,-0.601851380668,-0.798605113176,1.0,0.0,0.0,0.0,1.0,0.0,0.0,0.0,1.0,-0.00110266427509,0.000211437436519,0.00173910381272,1.21846967915e-07,0.0,0.0,0.0,1.21846967915e-07,0.0,0.0,0.0,1.21846967915e-07,-0.000147722661495,-0.0463344044983,9.77726078033,9e-08,0.0,0.0,0.0,9e-08,0.0,0.0,0.0,9e-08
1560469172220758633,11926,1560469172214952256,base_link,0.00206932592703,-0.000769060829927,-0.601856712244,-0.798601046005,1.0,0.0,0.0,0.0,1.0,0.0,0.0,0.0,1.0,-0.000908272282686,0.00212112045847,0.000451013707789,1.21846967915e-07,0.0,0.0,0.0,1.21846967915e-07,0.0,0.0,0.0,1.21846967915e-07,-0.0502750165761,-0.0244830399752,9.76712989807,9e-08,0.0,0.0,0.0,9e-08,0.0,0.0,0.0,9e-08
1560469172242502062,11927,1560469172238952256,base_link,0.00206608819296,-0.000761738802815,-0.60186880839,-0.798591984433,1.0,0.0,0.0,0.0,1.0,0.0,0.0,0.0,1.0,-5.17490552738e-05,-0.00160313630477,0.000452041596873,1.21846967915e-07,0.0,0.0,0.0,1.21846967915e-07,0.0,0.0,0.0,1.21846967915e-07,-0.0245137736201,-0.0394357815385,9.83839416504,9e-08,0.0,0.0,0.0,9e-08,0.0,0.0,0.0,9e-08
1560469172260772557,11928,1560469172254952256,base_link,0.00206921895471,-0.000762817786832,-0.601879071147,-0.798584250486,1.0,0.0,0.0,0.0,1.0,0.0,0.0,0.0,1.0,-0.00163785903715,0.000417116156314,0.00110537430737,1.21846967915e-07,0.0,0.0,0.0,1.21846967915e-07,0.0,0.0,0.0,1.21846967915e-07,-0.0320615954697,-0.0454918853939,9.85800170898,9e-08,0.0,0.0,0.0,9e-08,0.0,0.0,0.0,9e-08
1560469172282473806,11929,1560469172278952256,base_link,0.00206334395567,-0.000766858080866,-0.601890787971,-0.798575483942,1.0,0.0,0.0,0.0,1.0,0.0,0.0,0.0,1.0,-0.000487707002321,-0.00150488875806,0.000139154406497,1.21846967915e-07,0.0,0.0,0.0,1.21846967915e-07,0.0,0.0,0.0,1.21846967915e-07,-0.0213013738394,-0.038219217211,9.80055427551,9e-08,0.0,0.0,0.0,9e-08,0.0,0.0,0.0,9e-08
1560469172303511222,11930,1560469172298952256,base_link,0.00206485375128,-0.000761555398169,-0.601896404039,-0.798571216573,1.0,0.0,0.0,0.0,1.0,0.0,0.0,0.0,1.0,0.000160415656865,0.000734655070119,0.00054770213319,1.21846967915e-07,0.0,0.0,0.0,1.21846967915e-07,0.0,0.0,0.0,1.21846967915e-07,-0.0634081065655,0.00330184400082,9.82631969452,9e-08,0.0,0.0,0.0,9e-08,0.0,0.0,0.0,9e-08
1560469172321769211,11931,1560469172318949952,base_link,0.00204839812343,-0.000763710402754,-0.601907846908,-0.79856263969,1.0,0.0,0.0,0.0,1.0,0.0,0.0,0.0,1.0,0.00196560844779,-0.00107461609878,0.000429352570791,1.21846967915e-07,0.0,0.0,0.0,1.21846967915e-07,0.0,0.0,0.0,1.21846967915e-07,-0.0311742015183,0.000802453607322,9.81357860565,9e-08,0.0,0.0,0.0,9e-08,0.0,0.0,0.0,9e-08
1560469172340305345,11932,1560469172334949952,base_link,0.00204731720494,-0.00076388187128,-0.601907941739,-0.798562544859,1.0,0.0,0.0,0.0,1.0,0.0,0.0,0.0,1.0,0.000369235960534,0.00212254282087,0.000436238595285,1.21846967915e-07,0.0,0.0,0.0,1.21846967915e-07,0.0,0.0,0.0,1.21846967915e-07,-0.00361422821879,-0.0230077281594,9.79856014252,9e-08,0.0,0.0,0.0,9e-08,0.0,0.0,0.0,9e-08
1560469172360409625,11933,1560469172354949952,base_link,0.00204643619586,-0.000757433279981,-0.60191056538,-0.798560595568,1.0,0.0,0.0,0.0,1.0,0.0,0.0,0.0,1.0,0.000494182633702,-0.000534638238605,0.00182598852552,1.21846967915e-07,0.0,0.0,0.0,1.21846967915e-07,0.0,0.0,0.0,1.21846967915e-07,-0.0445933938026,0.0147402770817,9.83789253235,9e-08,0.0,0.0,0.0,9e-08,0.0,0.0,0.0,9e-08
1560469172382683710,11934,1560469172378949952,base_link,0.00205461935224,-0.000760582686772,-0.601918636502,-0.798554463201,1.0,0.0,0.0,0.0,1.0,0.0,0.0,0.0,1.0,-0.000972888316028,0.000533687823918,0.00247102184221,1.21846967915e-07,0.0,0.0,0.0,1.21846967915e-07,0.0,0.0,0.0,1.21846967915e-07,-0.0643304884434,-0.0263659507036,9.80912971497,9e-08,0.0,0.0,0.0,9e-08,0.0,0.0,0.0,9e-08
1560469172402404256,11935,1560469172398949952,base_link,0.00205195665099,-0.000757888457713,-0.601924916382,-0.798549700607,1.0,0.0,0.0,0.0,1.0,0.0,0.0,0.0,1.0,-5.03815535922e-05,-0.000431372376624,0.000983510632068,1.21846967915e-07,0.0,0.0,0.0,1.21846967915e-07,0.0,0.0,0.0,1.21846967915e-07,-0.0750534385443,-0.00820648297667,9.80386352539,9e-08,0.0,0.0,0.0,9e-08,0.0,0.0,0.0,9e-08
1560469172422059721,11936,1560469172418947904,base_link,0.00205479625375,-0.000755908584809,-0.601936622669,-0.798540860306,1.0,0.0,0.0,0.0,1.0,0.0,0.0,0.0,1.0,-0.000992833054624,0.000957082083914,0.0020522675477,1.21846967915e-07,0.0,0.0,0.0,1.21846967915e-07,0.0,0.0,0.0,1.21846967915e-07,-0.0695813000202,-0.0353801585734,9.78664398193,9e-08,0.0,0.0,0.0,9e-08,0.0,0.0,0.0,9e-08
1560469172441904401,11937,1560469172438947904,base_link,0.0020572860459,-0.000753071739704,-0.601946442885,-0.798533484607,1.0,0.0,0.0,0.0,1.0,0.0,0.0,0.0,1.0,0.00102113350295,-0.000429574283771,0.00139386556111,1.21846967915e-07,0.0,0.0,0.0,1.21846967915e-07,0.0,0.0,0.0,1.21846967915e-07,-0.0530421435833,-0.0186057128012,9.81326770782,9e-08,0.0,0.0,0.0,9e-08,0.0,0.0,0.0,9e-08
1560469172460834133,11938,1560469172454947904,base_link,0.00205569339717,-0.000751240286269,-0.601951289772,-0.798529817831,1.0,0.0,0.0,0.0,1.0,0.0,0.0,0.0,1.0,0.000374939758331,0.000951180933043,0.00086311576888,1.21846967915e-07,0.0,0.0,0.0,1.21846967915e-07,0.0,0.0,0.0,1.21846967915e-07,-0.0522755011916,-0.0603489726782,9.83334636688,9e-08,0.0,0.0,0.0,9e-08,0.0,0.0,0.0,9e-08
1560469172483032720,11939,1560469172478947904,base_link,0.00205483897683,-0.000750244196541,-0.601954176832,-0.798527605122,1.0,0.0,0.0,0.0,1.0,0.0,0.0,0.0,1.0,0.00080127059482,-0.000538327905815,0.00097110401839,1.21846967915e-07,0.0,0.0,0.0,1.21846967915e-07,0.0,0.0,0.0,1.21846967915e-07,-0.0427878461778,-0.0203946232796,9.82965660095,9e-08,0.0,0.0,0.0,9e-08,0.0,0.0,0.0,9e-08
1560469172503153249,11940,1560469172498947904,base_link,0.0020553137051,-0.000745654223639,-0.601959898266,-0.79852331668,1.0,0.0,0.0,0.0,1.0,0.0,0.0,0.0,1.0,0.000157871530973,0.00136900809593,0.000331075832946,1.21846967915e-07,0.0,0.0,0.0,1.21846967915e-07,0.0,0.0,0.0,1.21846967915e-07,-0.0359319075942,-0.0375952534378,9.8089799881,9e-08,0.0,0.0,0.0,9e-08,0.0,0.0,0.0,9e-08
1560469172521785918,11941,1560469172518945856,base_link,0.00205444619619,-0.000745060422288,-0.601968685884,-0.798516720698,1.0,0.0,0.0,0.0,1.0,0.0,0.0,0.0,1.0,0.00153825746384,-0.000437701470219,-0.000103653786937,1.21846967915e-07,0.0,0.0,0.0,1.21846967915e-07,0.0,0.0,0.0,1.21846967915e-07,-0.0498610846698,-0.00480382889509,9.78593444824,9e-08,0.0,0.0,0.0,9e-08,0.0,0.0,0.0,9e-08
1560469172540628812,11942,1560469172534945856,base_link,0.00205706670942,-0.000740285809969,-0.601971867971,-0.798514297255,1.0,0.0,0.0,0.0,1.0,0.0,0.0,0.0,1.0,-0.000581279979087,-0.000216377491597,0.000987842679024,1.21846967915e-07,0.0,0.0,0.0,1.21846967915e-07,0.0,0.0,0.0,1.21846967915e-07,0.0250116381794,-0.0414250865579,9.79784393311,9e-08,0.0,0.0,0.0,9e-08,0.0,0.0,0.0,9e-08
1560469172562031167,11943,1560469172558945856,base_link,0.00205528571696,-0.000741040460816,-0.601981192961,-0.798507248194,1.0,0.0,0.0,0.0,1.0,0.0,0.0,0.0,1.0,7.22572440282e-05,-0.000536193547305,0.00193762616254,1.21846967915e-07,0.0,0.0,0.0,1.21846967915e-07,0.0,0.0,0.0,1.21846967915e-07,-0.0201146714389,-0.0185738019645,9.81701183319,9e-08,0.0,0.0,0.0,9e-08,0.0,0.0,0.0,9e-08
1560469172583219151,11944,1560469172578945856,base_link,0.00204929703668,-0.000737888543323,-0.60199161377,-0.79849944049,1.0,0.0,0.0,0.0,1.0,0.0,0.0,0.0,1.0,-0.000792687002104,0.000312460761052,0.00119968876243,1.21846967915e-07,0.0,0.0,0.0,1.21846967915e-07,0.0,0.0,0.0,1.21846967915e-07,-0.0142930522561,-0.00809020921588,9.82127380371,9e-08,0.0,0.0,0.0,9e-08,0.0,0.0,0.0,9e-08
1560469172600723323,11945,1560469172594945856,base_link,0.00205846607534,-0.000735104093667,-0.601996249923,-0.798496068743,1.0,0.0,0.0,0.0,1.0,0.0,0.0,0.0,1.0,-0.000806658761576,0.000737014343031,0.000238307140535,1.21846967915e-07,0.0,0.0,0.0,1.21846967915e-07,0.0,0.0,0.0,1.21846967915e-07,-0.0189790017903,0.0179486460984,9.79331970215,9e-08,0.0,0.0,0.0,9e-08,0.0,0.0,0.0,9e-08
1560469172623007278,11946,1560469172619943040,base_link,0.0020574842678,-0.000733429991209,-0.601999105372,-0.798493803349,1.0,0.0,0.0,0.0,1.0,0.0,0.0,0.0,1.0,0.000263650115812,-0.000329584407154,0.000339838938089,1.21846967915e-07,0.0,0.0,0.0,1.21846967915e-07,0.0,0.0,0.0,1.21846967915e-07,-0.0427708700299,-0.0087607614696,9.79155921936,9e-08,0.0,0.0,0.0,9e-08,0.0,0.0,0.0,9e-08
1560469172643812708,11947,1560469172639943040,base_link,0.00205785284693,-0.00072971896943,-0.602003625622,-0.798490463212,1.0,0.0,0.0,0.0,1.0,0.0,0.0,0.0,1.0,-0.000165351753822,-0.000331543677021,0.000981908291578,1.21846967915e-07,0.0,0.0,0.0,1.21846967915e-07,0.0,0.0,0.0,1.21846967915e-07,-0.0384014248848,-0.0635199248791,9.80142784119,9e-08,0.0,0.0,0.0,9e-08,0.0,0.0,0.0,9e-08
1560469172662343848,11948,1560469172655943040,base_link,0.00205793500036,-0.000728734610026,-0.602008261775,-0.798486838583,1.0,0.0,0.0,0.0,1.0,0.0,0.0,0.0,1.0,-0.000792720355093,-0.000539330125321,0.000991283915937,1.21846967915e-07,0.0,0.0,0.0,1.21846967915e-07,0.0,0.0,0.0,1.21846967915e-07,-0.0286982022226,-0.0297137573361,9.77473926544,9e-08,0.0,0.0,0.0,9e-08,0.0,0.0,0.0,9e-08
1560469172684174606,11949,1560469172679943040,base_link,0.00206455254948,-0.000732451929138,-0.602015858744,-0.798481096075,1.0,0.0,0.0,0.0,1.0,0.0,0.0,0.0,1.0,0.000705604208633,-0.000748650869355,0.00150145438965,1.21846967915e-07,0.0,0.0,0.0,1.21846967915e-07,0.0,0.0,0.0,1.21846967915e-07,-0.0542249120772,-0.00981482490897,9.75692939758,9e-08,0.0,0.0,0.0,9e-08,0.0,0.0,0.0,9e-08
1560469172703523348,11950,1560469172699943040,base_link,0.00204726637353,-0.000729785523584,-0.602024867633,-0.798474363116,1.0,0.0,0.0,0.0,1.0,0.0,0.0,0.0,1.0,-5.20353787579e-05,-0.000861880835146,0.000771644175984,1.21846967915e-07,0.0,0.0,0.0,1.21846967915e-07,0.0,0.0,0.0,1.21846967915e-07,-0.0339387841523,-0.027923617512,9.85056686401,9e-08,0.0,0.0,0.0,9e-08,0.0,0.0,0.0,9e-08
1560469172722986364,11951,1560469172719938944,base_link,0.00205321504723,-0.000723973168597,-0.602031590056,-0.798469410861,1.0,0.0,0.0,0.0,1.0,0.0,0.0,0.0,1.0,-4.6452099923e-05,0.000206504453672,0.00119027425535,1.21846967915e-07,0.0,0.0,0.0,1.21846967915e-07,0.0,0.0,0.0,1.21846967915e-07,-0.0247760675848,-0.0470618531108,9.82223033905,9e-08,0.0,0.0,0.0,9e-08,0.0,0.0,0.0,9e-08
1560469172742596209,11952,1560469172739938944,base_link,0.00204924073113,-0.000715270832197,-0.602039513663,-0.798463341715,1.0,0.0,0.0,0.0,1.0,0.0,0.0,0.0,1.0,-0.000689337262884,-0.000327523099259,0.000988025451079,1.21846967915e-07,0.0,0.0,0.0,1.21846967915e-07,0.0,0.0,0.0,1.21846967915e-07,-0.0307607464492,-0.00962540879845,9.79156494141,9e-08,0.0,0.0,0.0,9e-08,0.0,0.0,0.0,9e-08
1560469172760646844,11953,1560469172755938944,base_link,0.00205563453975,-0.000715925425438,-0.602045698713,-0.798458758245,1.0,0.0,0.0,0.0,1.0,0.0,0.0,0.0,1.0,-0.0011100762058,-0.000321043946315,0.00142333528493,1.21846967915e-07,0.0,0.0,0.0,1.21846967915e-07,0.0,0.0,0.0,1.21846967915e-07,-0.0499635636806,-0.000644337385892,9.78848552704,9e-08,0.0,0.0,0.0,9e-08,0.0,0.0,0.0,9e-08
1560469172780803536,11954,1560469172775938944,base_link,0.00205574073006,-0.000720628585678,-0.602049080998,-0.798456134604,1.0,0.0,0.0,0.0,1.0,0.0,0.0,0.0,1.0,-0.000592908589169,0.000306133442791,-8.08099284768e-05,1.21846967915e-07,0.0,0.0,0.0,1.21846967915e-07,0.0,0.0,0.0,1.21846967915e-07,-0.0582023635507,-0.0243128463626,9.76635742188,9e-08,0.0,0.0,0.0,9e-08,0.0,0.0,0.0,9e-08
1560469172804402518,11955,1560469172799938944,base_link,0.00206166837149,-0.000720821786173,-0.602061809346,-0.798446525122,1.0,0.0,0.0,0.0,1.0,0.0,0.0,0.0,1.0,-0.000679055345245,0.000312821415719,0.00162013224326,1.21846967915e-07,0.0,0.0,0.0,1.21846967915e-07,0.0,0.0,0.0,1.21846967915e-07,-0.0667629465461,-0.0161525867879,9.76821327209,9e-08,0.0,0.0,0.0,9e-08,0.0,0.0,0.0,9e-08
1560469172822811710,11956,1560469172819936384,base_link,0.0020559870257,-0.000718639451991,-0.60206516002,-0.798444017385,1.0,0.0,0.0,0.0,1.0,0.0,0.0,0.0,1.0,-0.000572853256017,-0.000535512284841,0.00152035872452,1.21846967915e-07,0.0,0.0,0.0,1.21846967915e-07,0.0,0.0,0.0,1.21846967915e-07,-0.0211061127484,-0.00148342177272,9.76327419281,9e-08,0.0,0.0,0.0,9e-08,0.0,0.0,0.0,9e-08
1560469172843829590,11957,1560469172839936384,base_link,0.00204718438474,-0.000720969258983,-0.602074600914,-0.79843685242,1.0,0.0,0.0,0.0,1.0,0.0,0.0,0.0,1.0,0.00133759889286,-0.000538116320968,0.000962871010415,1.21846967915e-07,0.0,0.0,0.0,1.21846967915e-07,0.0,0.0,0.0,1.21846967915e-07,-0.0440319254994,-0.0300028584898,9.86592769623,9e-08,0.0,0.0,0.0,9e-08,0.0,0.0,0.0,9e-08
1560469172862935252,11958,1560469172859936384,base_link,0.00205432609413,-0.000724575983776,-0.602081681585,-0.798431541917,1.0,0.0,0.0,0.0,1.0,0.0,0.0,0.0,1.0,-0.0003462874447,0.000959027092904,0.00257441354915,1.21846967915e-07,0.0,0.0,0.0,1.21846967915e-07,0.0,0.0,0.0,1.21846967915e-07,-0.067725777626,-0.0271475613117,9.76861763,9e-08,0.0,0.0,0.0,9e-08,0.0,0.0,0.0,9e-08
1560469172881615210,11959,1560469172875936384,base_link,0.00204409548173,-0.000724868171743,-0.602089520899,-0.798425725652,1.0,0.0,0.0,0.0,1.0,0.0,0.0,0.0,1.0,0.00187284755521,-0.00128604425117,0.00137974740937,1.21846967915e-07,0.0,0.0,0.0,1.21846967915e-07,0.0,0.0,0.0,1.21846967915e-07,-0.0541953705251,-0.0135941058397,9.79238986969,9e-08,0.0,0.0,0.0,9e-08,0.0,0.0,0.0,9e-08
1560469172901523951,11960,1560469172895936384,base_link,0.00205174604023,-0.000722747082201,-0.602094536374,-0.798421805995,1.0,0.0,0.0,0.0,1.0,0.0,0.0,0.0,1.0,0.000276170612779,0.00222785235383,0.00117672292981,1.21846967915e-07,0.0,0.0,0.0,1.21846967915e-07,0.0,0.0,0.0,1.21846967915e-07,-0.0177048444748,-0.0244941972196,9.8336763382,9e-08,0.0,0.0,0.0,9e-08,0.0,0.0,0.0,9e-08
1560469172922827251,11961,1560469172919932800,base_link,0.00205437042241,-0.000717853355644,-0.60210746492,-0.798412164904,1.0,0.0,0.0,0.0,1.0,0.0,0.0,0.0,1.0,0.000827110779937,-0.000849361065775,0.00277936388738,1.21846967915e-07,0.0,0.0,0.0,1.21846967915e-07,0.0,0.0,0.0,1.21846967915e-07,-0.0411769486964,0.00102802366018,9.79503631592,9e-08,0.0,0.0,0.0,9e-08,0.0,0.0,0.0,9e-08
1560469172943028407,11962,1560469172939932800,base_link,0.00205079316749,-0.000716777993621,-0.602112533078,-0.798408276857,1.0,0.0,0.0,0.0,1.0,0.0,0.0,0.0,1.0,-0.000676883675624,-0.000641845923383,0.00173401017673,1.21846967915e-07,0.0,0.0,0.0,1.21846967915e-07,0.0,0.0,0.0,1.21846967915e-07,-0.0630159750581,-0.0125633701682,9.83669567108,9e-08,0.0,0.0,0.0,9e-08,0.0,0.0,0.0,9e-08
1560469172960324935,11963,1560469172955932800,base_link,0.00204779707809,-0.000711349652401,-0.602118475784,-0.798403935732,1.0,0.0,0.0,0.0,1.0,0.0,0.0,0.0,1.0,0.00165160628967,-0.00107383052818,0.000960036180913,1.21846967915e-07,0.0,0.0,0.0,1.21846967915e-07,0.0,0.0,0.0,1.21846967915e-07,-0.0568276941776,-0.0378061458468,9.83399200439,9e-08,0.0,0.0,0.0,9e-08,0.0,0.0,0.0,9e-08
1560469172980824644,11964,1560469172975932800,base_link,0.0020421300968,-0.00071584327201,-0.602121626261,-0.798401459604,1.0,0.0,0.0,0.0,1.0,0.0,0.0,0.0,1.0,-6.18461053818e-05,-2.96579673886e-06,0.000770105980337,1.21846967915e-07,0.0,0.0,0.0,1.21846967915e-07,0.0,0.0,0.0,1.21846967915e-07,-0.0572302043438,-0.0298020280898,9.84770965576,9e-08,0.0,0.0,0.0,9e-08,0.0,0.0,0.0,9e-08
1560469173003722857,11965,1560469172999932800,base_link,0.00204426234044,-0.000723470493343,-0.602126283487,-0.798397982489,1.0,0.0,0.0,0.0,1.0,0.0,0.0,0.0,1.0,0.000497744767927,0.000418434879975,0.00203241920099,1.21846967915e-07,0.0,0.0,0.0,1.21846967915e-07,0.0,0.0,0.0,1.21846967915e-07,-0.0545518919826,-0.00467978045344,9.79253959656,9e-08,0.0,0.0,0.0,9e-08,0.0,0.0,0.0,9e-08
1560469173023081096,11966,1560469173019931008,base_link,0.00204434725152,-0.000726644060486,-0.602137578843,-0.798389468826,1.0,0.0,0.0,0.0,1.0,0.0,0.0,0.0,1.0,0.00135666667484,0.000531672732905,0.00244490685873,1.21846967915e-07,0.0,0.0,0.0,1.21846967915e-07,0.0,0.0,0.0,1.21846967915e-07,-0.0626115426421,-0.0145991183817,9.79803848267,9e-08,0.0,0.0,0.0,9e-08,0.0,0.0,0.0,9e-08
1560469173043141221,11967,1560469173039931008,base_link,0.00205091845558,-0.000727823266745,-0.602148357899,-0.798381302874,1.0,0.0,0.0,0.0,1.0,0.0,0.0,0.0,1.0,0.000721048680134,0.000531493744347,0.00244995672256,1.21846967915e-07,0.0,0.0,0.0,1.21846967915e-07,0.0,0.0,0.0,1.21846967915e-07,-0.0742103457451,-0.0229136645794,9.7773771286,9e-08,0.0,0.0,0.0,9e-08,0.0,0.0,0.0,9e-08
1560469173062565016,11968,1560469173059931008,base_link,0.0020418265901,-0.000720777169782,-0.602153289081,-0.798377636098,1.0,0.0,0.0,0.0,1.0,0.0,0.0,0.0,1.0,0.00209805928171,0.000319130922435,0.00190376688261,1.21846967915e-07,0.0,0.0,0.0,1.21846967915e-07,0.0,0.0,0.0,1.21846967915e-07,-0.0372604206204,-0.0264160893857,9.80663299561,9e-08,0.0,0.0,0.0,9e-08,0.0,0.0,0.0,9e-08
1560469173080904242,11969,1560469173075931008,base_link,0.00204334223029,-0.000727635252288,-0.602155870575,-0.798375728953,1.0,0.0,0.0,0.0,1.0,0.0,0.0,0.0,1.0,0.000366407301044,0.000519486377016,1.27346720546e-05,1.21846967915e-07,0.0,0.0,0.0,1.21846967915e-07,0.0,0.0,0.0,1.21846967915e-07,0.0218996722251,-0.0226631462574,9.81130218506,9e-08,0.0,0.0,0.0,9e-08,0.0,0.0,0.0,9e-08
1560469173103441130,11970,1560469173099931008,base_link,0.00203762021937,-0.000727813964804,-0.602165395763,-0.798368479695,1.0,0.0,0.0,0.0,1.0,0.0,0.0,0.0,1.0,0.000483085110318,0.000845080823638,0.000112470210297,1.21846967915e-07,0.0,0.0,0.0,1.21846967915e-07,0.0,0.0,0.0,1.21846967915e-07,-0.00231814011931,-0.0396981611848,9.73758220673,9e-08,0.0,0.0,0.0,9e-08,0.0,0.0,0.0,9e-08
1560469173122054505,11971,1560469173116931008,base_link,0.0020464466091,-0.000730193697702,-0.602162403337,-0.798370629185,1.0,0.0,0.0,0.0,1.0,0.0,0.0,0.0,1.0,0.000904588261619,0.000521123118233,0.000743624987081,1.21846967915e-07,0.0,0.0,0.0,1.21846967915e-07,0.0,0.0,0.0,1.21846967915e-07,-0.0563292913139,-0.0394242964685,9.80462360382,9e-08,0.0,0.0,0.0,9e-08,0.0,0.0,0.0,9e-08
1560469173140363121,11972,1560469173136931008,base_link,0.00205585354696,-0.000723547707686,-0.602161981868,-0.798371050653,1.0,0.0,0.0,0.0,1.0,0.0,0.0,0.0,1.0,-0.000910668226425,-0.00108358473517,-0.000383969629183,1.21846967915e-07,0.0,0.0,0.0,1.21846967915e-07,0.0,0.0,0.0,1.21846967915e-07,-0.0254157446325,-0.0285707861185,9.76152706146,9e-08,0.0,0.0,0.0,9e-08,0.0,0.0,0.0,9e-08
1560469173161958139,11973,1560469173156931008,base_link,0.00205716228069,-0.000717186291216,-0.602166512654,-0.798367615685,1.0,0.0,0.0,0.0,1.0,0.0,0.0,0.0,1.0,-0.00144220888615,-0.000756129738875,-6.5294909291e-05,1.21846967915e-07,0.0,0.0,0.0,1.21846967915e-07,0.0,0.0,0.0,1.21846967915e-07,-0.0222759880126,-0.0254585295916,9.82255840302,9e-08,0.0,0.0,0.0,9e-08,0.0,0.0,0.0,9e-08
1560469173183657354,11974,1560469173180931008,base_link,0.0020553478671,-0.000716882167131,-0.602174931487,-0.798361219901,1.0,0.0,0.0,0.0,1.0,0.0,0.0,0.0,1.0,0.000480301940115,0.000202939321753,0.000968708249275,1.21846967915e-07,0.0,0.0,0.0,1.21846967915e-07,0.0,0.0,0.0,1.21846967915e-07,-0.0488754473627,-0.0251085981727,9.79219245911,9e-08,0.0,0.0,0.0,9e-08,0.0,0.0,0.0,9e-08
1560469173200311157,11975,1560469173196931008,base_link,0.00206225291206,-0.000722043962461,-0.602178355919,-0.798358638406,1.0,0.0,0.0,0.0,1.0,0.0,0.0,0.0,1.0,-0.00240131583996,0.00307308929041,0.000141470649396,1.21846967915e-07,0.0,0.0,0.0,1.21846967915e-07,0.0,0.0,0.0,1.21846967915e-07,-0.0367460697889,-0.0381101183593,9.77287197113,9e-08,0.0,0.0,0.0,9e-08,0.0,0.0,0.0,9e-08
1560469173221783739,11976,1560469173216926144,base_link,0.00206317088194,-0.000726650851726,-0.602188861021,-0.798350746409,1.0,0.0,0.0,0.0,1.0,0.0,0.0,0.0,1.0,-4.17249393649e-05,-0.000436556525528,0.00140183581971,1.21846967915e-07,0.0,0.0,0.0,1.21846967915e-07,0.0,0.0,0.0,1.21846967915e-07,-0.0349813811481,-0.0503774210811,9.79792690277,9e-08,0.0,0.0,0.0,9e-08,0.0,0.0,0.0,9e-08
1560469173240596354,11977,1560469173236926144,base_link,0.00206320240976,-0.000727912376049,-0.602196616041,-0.798344930144,1.0,0.0,0.0,0.0,1.0,0.0,0.0,0.0,1.0,-0.000687210937031,0.0010581901297,0.00119492737576,1.21846967915e-07,0.0,0.0,0.0,1.21846967915e-07,0.0,0.0,0.0,1.21846967915e-07,-0.0298697389662,-0.0279294960201,9.82498931885,9e-08,0.0,0.0,0.0,9e-08,0.0,0.0,0.0,9e-08
1560469173261569652,11978,1560469173257926144,base_link,0.00207167306197,-0.000728419990388,-0.602199260756,-0.798342791191,1.0,0.0,0.0,0.0,1.0,0.0,0.0,0.0,1.0,-0.00100212299731,-0.000540922337677,0.00110077159479,1.21846967915e-07,0.0,0.0,0.0,1.21846967915e-07,0.0,0.0,0.0,1.21846967915e-07,-0.0334386043251,-0.0170477777719,9.80694007874,9e-08,0.0,0.0,0.0,9e-08,0.0,0.0,0.0,9e-08
1560469173280289938,11979,1560469173277926144,base_link,0.00207035436776,-0.000731789062931,-0.60220347544,-0.798339588031,1.0,0.0,0.0,0.0,1.0,0.0,0.0,0.0,1.0,-0.0012333606137,0.00051732279826,-7.51187035348e-05,1.21846967915e-07,0.0,0.0,0.0,1.21846967915e-07,0.0,0.0,0.0,1.21846967915e-07,-0.0519250072539,-0.00576295703649,9.77868556976,9e-08,0.0,0.0,0.0,9e-08,0.0,0.0,0.0,9e-08
1560469173301752927,11980,1560469173297926144,base_link,0.00205912531955,-0.000737497861794,-0.602208448769,-0.798335963402,1.0,0.0,0.0,0.0,1.0,0.0,0.0,0.0,1.0,-0.000485668570036,-0.00150391214993,0.000243894537562,1.21846967915e-07,0.0,0.0,0.0,1.21846967915e-07,0.0,0.0,0.0,1.21846967915e-07,-0.0369075015187,-0.000968266278504,9.80219936371,9e-08,0.0,0.0,0.0,9e-08,0.0,0.0,0.0,9e-08
1560469173320962017,11981,1560469173317924096,base_link,0.00205833366674,-0.000739080097293,-0.602215234411,-0.798330779339,1.0,0.0,0.0,0.0,1.0,0.0,0.0,0.0,1.0,-0.000255937105976,-0.000646977510769,0.00140634994023,1.21846967915e-07,0.0,0.0,0.0,1.21846967915e-07,0.0,0.0,0.0,1.21846967915e-07,-0.0511800162494,-0.0505770519376,9.76631355286,9e-08,0.0,0.0,0.0,9e-08,0.0,0.0,0.0,9e-08
1560469173341451904,11982,1560469173337924096,base_link,0.00206047994561,-0.000734746792112,-0.602224843893,-0.798323530081,1.0,0.0,0.0,0.0,1.0,0.0,0.0,0.0,1.0,-0.000459314207546,0.000739872222766,0.00214700447395,1.21846967915e-07,0.0,0.0,0.0,1.21846967915e-07,0.0,0.0,0.0,1.21846967915e-07,-0.022862855345,0.00290945544839,9.81896209717,9e-08,0.0,0.0,0.0,9e-08,0.0,0.0,0.0,9e-08
1560469173360396432,11983,1560469173357924096,base_link,0.00205518051447,-0.00072669785534,-0.602239616363,-0.79831238224,1.0,0.0,0.0,0.0,1.0,0.0,0.0,0.0,1.0,0.000614767952356,-0.000214631436393,0.00288276025094,1.21846967915e-07,0.0,0.0,0.0,1.21846967915e-07,0.0,0.0,0.0,1.21846967915e-07,-0.0413475818932,-0.0368348024786,9.7542848587,9e-08,0.0,0.0,0.0,9e-08,0.0,0.0,0.0,9e-08
1560469173381610492,11984,1560469173377924096,base_link,0.00205836708787,-0.000726881383463,-0.602247266016,-0.798306671342,1.0,0.0,0.0,0.0,1.0,0.0,0.0,0.0,1.0,-4.64438926429e-05,0.000415747053921,0.00118539098185,1.21846967915e-07,0.0,0.0,0.0,1.21846967915e-07,0.0,0.0,0.0,1.21846967915e-07,-0.0431970879436,-0.00224148482084,9.82917022705,9e-08,0.0,0.0,0.0,9e-08,0.0,0.0,0.0,9e-08
1560469173400643370,11985,1560469173397924096,base_link,0.00205174451735,-0.000733127925075,-0.602254652251,-0.798301055274,1.0,0.0,0.0,0.0,1.0,0.0,0.0,0.0,1.0,0.000590439420193,0.000735366833396,0.00117491849232,1.21846967915e-07,0.0,0.0,0.0,1.21846967915e-07,0.0,0.0,0.0,1.21846967915e-07,-0.0235360376537,-0.0283379629254,9.83931827545,9e-08,0.0,0.0,0.0,9e-08,0.0,0.0,0.0,9e-08
1560469173420440041,11986,1560469173417922048,base_link,0.00205229086233,-0.000729684313525,-0.602257202136,-0.79829917974,1.0,0.0,0.0,0.0,1.0,0.0,0.0,0.0,1.0,0.00121936399955,0.000941415957641,0.000206176177016,1.21846967915e-07,0.0,0.0,0.0,1.21846967915e-07,0.0,0.0,0.0,1.21846967915e-07,-0.0356212109327,0.00187322869897,9.79306125641,9e-08,0.0,0.0,0.0,9e-08,0.0,0.0,0.0,9e-08
1560469173441506700,11987,1560469173437922048,base_link,0.00204228012147,-0.000735019717651,-0.602264514614,-0.798293721723,1.0,0.0,0.0,0.0,1.0,0.0,0.0,0.0,1.0,0.00208483892493,0.000625718326773,0.000738114351407,1.21846967915e-07,0.0,0.0,0.0,1.21846967915e-07,0.0,0.0,0.0,1.21846967915e-07,-0.0195787847042,-0.0214753225446,9.84383583069,9e-08,0.0,0.0,0.0,9e-08,0.0,0.0,0.0,9e-08
1560469173460748881,11988,1560469173457922048,base_link,0.00204588976856,-0.000735418630987,-0.602272385538,-0.79828770526,1.0,0.0,0.0,0.0,1.0,0.0,0.0,0.0,1.0,0.000163753924426,0.00105284061283,0.00107600295451,1.21846967915e-07,0.0,0.0,0.0,1.21846967915e-07,0.0,0.0,0.0,1.21846967915e-07,-0.0648745894432,-0.00659648329019,9.8174495697,9e-08,0.0,0.0,0.0,9e-08,0.0,0.0,0.0,9e-08
1560469173480483284,11989,1560469173477922048,base_link,0.00204070060247,-0.000728545237321,-0.602273133644,-0.798287210035,1.0,0.0,0.0,0.0,1.0,0.0,0.0,0.0,1.0,0.00122364610434,9.28064691834e-05,0.000743490760215,1.21846967915e-07,0.0,0.0,0.0,1.21846967915e-07,0.0,0.0,0.0,1.21846967915e-07,-0.027354862541,-0.0345558337867,9.83992004395,9e-08,0.0,0.0,0.0,9e-08,0.0,0.0,0.0,9e-08
1560469173502772240,11990,1560469173498922048,base_link,0.0020367859258,-0.000731266302069,-0.602276073387,-0.798284944642,1.0,0.0,0.0,0.0,1.0,0.0,0.0,0.0,1.0,0.000586255802773,-0.000651679234579,0.000755118438974,1.21846967915e-07,0.0,0.0,0.0,1.21846967915e-07,0.0,0.0,0.0,1.21846967915e-07,-0.0423802025616,-0.00868204608559,9.78573036194,9e-08,0.0,0.0,0.0,9e-08,0.0,0.0,0.0,9e-08
1560469173520513635,11991,1560469173514920256,base_link,0.00204111943678,-0.000729933119872,-0.602276136607,-0.798284965715,1.0,0.0,0.0,0.0,1.0,0.0,0.0,0.0,1.0,-0.000374413415557,0.00115630985238,0.000546081282664,1.21846967915e-07,0.0,0.0,0.0,1.21846967915e-07,0.0,0.0,0.0,1.21846967915e-07,-0.0178649798036,-0.0471179820597,9.80211162567,9e-08,0.0,0.0,0.0,9e-08,0.0,0.0,0.0,9e-08
1560469173542627353,11992,1560469173538920256,base_link,0.00204056658866,-0.000726825119066,-0.60228295386,-0.798279834336,1.0,0.0,0.0,0.0,1.0,0.0,0.0,0.0,1.0,-0.00132816482801,-0.000439561670646,0.000675365095958,1.21846967915e-07,0.0,0.0,0.0,1.21846967915e-07,0.0,0.0,0.0,1.21846967915e-07,-0.0405376181006,-0.048166282475,9.78149986267,9e-08,0.0,0.0,0.0,9e-08,0.0,0.0,0.0,9e-08
1560469173560630943,11993,1560469173554920256,base_link,0.00204413413006,-0.000727612203231,-0.602286167557,-0.798277294989,1.0,0.0,0.0,0.0,1.0,0.0,0.0,0.0,1.0,-0.000465184799396,0.000416909984779,0.00172164069954,1.21846967915e-07,0.0,0.0,0.0,1.21846967915e-07,0.0,0.0,0.0,1.21846967915e-07,-0.0124574489892,-0.0410499162972,9.77829265594,9e-08,0.0,0.0,0.0,9e-08,0.0,0.0,0.0,9e-08
1560469173581836958,11994,1560469173578920256,base_link,0.00204774369482,-0.000722952259974,-0.602294902492,-0.79827075169,1.0,0.0,0.0,0.0,1.0,0.0,0.0,0.0,1.0,0.000592000083998,-1.02433841676e-05,0.00128447124735,1.21846967915e-07,0.0,0.0,0.0,1.21846967915e-07,0.0,0.0,0.0,1.21846967915e-07,-0.0433815047145,0.0123704634607,9.81483745575,9e-08,0.0,0.0,0.0,9e-08,0.0,0.0,0.0,9e-08
1560469173604199444,11995,1560469173598920256,base_link,0.00204778724108,-0.000721876774474,-0.602303205421,-0.798264556104,1.0,0.0,0.0,0.0,1.0,0.0,0.0,0.0,1.0,-0.000164345867233,0.000410020817071,0.000333915173542,1.21846967915e-07,0.0,0.0,0.0,1.21846967915e-07,0.0,0.0,0.0,1.21846967915e-07,-0.0335599035025,-0.0371196269989,9.80376720428,9e-08,0.0,0.0,0.0,9e-08,0.0,0.0,0.0,9e-08
1560469173622884559,11996,1560469173618918208,base_link,0.00204802806257,-0.000723510170649,-0.602311297616,-0.798258402664,1.0,0.0,0.0,0.0,1.0,0.0,0.0,0.0,1.0,-3.78640252165e-05,0.00211759191006,0.00170921953395,1.21846967915e-07,0.0,0.0,0.0,1.21846967915e-07,0.0,0.0,0.0,1.21846967915e-07,-0.0225283540785,-0.0135603547096,9.77184391022,9e-08,0.0,0.0,0.0,9e-08,0.0,0.0,0.0,9e-08
1560469173642422072,11997,1560469173638918208,base_link,0.00204275213325,-0.000720853931376,-0.602323888987,-0.798248845866,1.0,0.0,0.0,0.0,1.0,0.0,0.0,0.0,1.0,0.0018736369675,-0.000647717854008,0.00169775635004,1.21846967915e-07,0.0,0.0,0.0,1.21846967915e-07,0.0,0.0,0.0,1.21846967915e-07,-0.0101573839784,-0.0372794046998,9.77488231659,9e-08,0.0,0.0,0.0,9e-08,0.0,0.0,0.0,9e-08
1560469173661998575,11998,1560469173658918208,base_link,0.00203695451319,-0.000718024453739,-0.602330632482,-0.798243788244,1.0,0.0,0.0,0.0,1.0,0.0,0.0,0.0,1.0,0.000917183584534,0.000202562048798,0.00159694452304,1.21846967915e-07,0.0,0.0,0.0,1.21846967915e-07,0.0,0.0,0.0,1.21846967915e-07,0.0172398015857,-0.0213448107243,9.82919216156,9e-08,0.0,0.0,0.0,9e-08,0.0,0.0,0.0,9e-08
1560469173682176798,11999,1560469173678918208,base_link,0.00204111857244,-0.000717153117037,-0.602339251513,-0.79823736085,1.0,0.0,0.0,0.0,1.0,0.0,0.0,0.0,1.0,0.00143749976996,0.000315370998578,0.000747910118662,1.21846967915e-07,0.0,0.0,0.0,1.21846967915e-07,0.0,0.0,0.0,1.21846967915e-07,-0.0071894004941,-0.0283396430314,9.80044555664,9e-08,0.0,0.0,0.0,9e-08,0.0,0.0,0.0,9e-08
1560469173702818058,12000,1560469173698918208,base_link,0.00203961165797,-0.000715297667885,-0.602351210681,-0.798228267667,1.0,0.0,0.0,0.0,1.0,0.0,0.0,0.0,1.0,-0.000469259859528,9.81258926913e-05,0.00140317319892,1.21846967915e-07,0.0,0.0,0.0,1.21846967915e-07,0.0,0.0,0.0,1.21846967915e-07,-0.0152781642973,-0.0122245289385,9.80606174469,9e-08,0.0,0.0,0.0,9e-08,0.0,0.0,0.0,9e-08
1560469173720930228,12001,1560469173714916416,base_link,0.00204524591782,-0.000709290342566,-0.602351737517,-0.798227909419,1.0,0.0,0.0,0.0,1.0,0.0,0.0,0.0,1.0,-0.00165881565772,-0.000123998208437,-6.46428961772e-05,1.21846967915e-07,0.0,0.0,0.0,1.21846967915e-07,0.0,0.0,0.0,1.21846967915e-07,-0.0296015515924,0.000918548554183,9.76899623871,9e-08,0.0,0.0,0.0,9e-08,0.0,0.0,0.0,9e-08
1560469173741832616,12002,1560469173738916416,base_link,0.00205045854456,-0.000708483049317,-0.602365266655,-0.798217667735,1.0,0.0,0.0,0.0,1.0,0.0,0.0,0.0,1.0,-0.00162289652508,0.00159974116832,0.00226306263357,1.21846967915e-07,0.0,0.0,0.0,1.21846967915e-07,0.0,0.0,0.0,1.21846967915e-07,0.00555985793471,-0.0311863087118,9.80123806,9e-08,0.0,0.0,0.0,9e-08,0.0,0.0,0.0,9e-08
1560469173763485899,12003,1560469173758916416,base_link,0.00205046648825,-0.000704590845479,-0.602371683513,-0.798212852457,1.0,0.0,0.0,0.0,1.0,0.0,0.0,0.0,1.0,-0.00112032203469,-0.00118260853924,0.000672745227348,1.21846967915e-07,0.0,0.0,0.0,1.21846967915e-07,0.0,0.0,0.0,1.21846967915e-07,-0.0149785764515,-0.0500477850437,9.75932312012,9e-08,0.0,0.0,0.0,9e-08,0.0,0.0,0.0,9e-08
1560469173782552670,12004,1560469173778916416,base_link,0.00204963083643,-0.000705016717981,-0.602370872186,-0.798213410903,1.0,0.0,0.0,0.0,1.0,0.0,0.0,0.0,1.0,-0.00133540958632,-0.000228397431783,0.000246096460614,1.21846967915e-07,0.0,0.0,0.0,1.21846967915e-07,0.0,0.0,0.0,1.21846967915e-07,-0.006034437567,-0.0402087084949,9.82327651978,9e-08,0.0,0.0,0.0,9e-08,0.0,0.0,0.0,9e-08
