%time,field.header.seq,field.header.stamp,field.header.frame_id,field.orientation.x,field.orientation.y,field.orientation.z,field.orientation.w,field.orientation_covariance0,field.orientation_covariance1,field.orientation_covariance2,field.orientation_covariance3,field.orientation_covariance4,field.orientation_covariance5,field.orientation_covariance6,field.orientation_covariance7,field.orientation_covariance8,field.angular_velocity.x,field.angular_velocity.y,field.angular_velocity.z,field.angular_velocity_covariance0,field.angular_velocity_covariance1,field.angular_velocity_covariance2,field.angular_velocity_covariance3,field.angular_velocity_covariance4,field.angular_velocity_covariance5,field.angular_velocity_covariance6,field.angular_velocity_covariance7,field.angular_velocity_covariance8,field.linear_acceleration.x,field.linear_acceleration.y,field.linear_acceleration.z,field.linear_acceleration_covariance0,field.linear_acceleration_covariance1,field.linear_acceleration_covariance2,field.linear_acceleration_covariance3,field.linear_acceleration_covariance4,field.linear_acceleration_covariance5,field.linear_acceleration_covariance6,field.linear_acceleration_covariance7,field.linear_acceleration_covariance8
1560469595023992382,33059,1560469594929181248,base_link,-0.00220789793253,0.00152787590092,-0.601455779811,-0.798901584645,1.0,0.0,0.0,0.0,1.0,0.0,0.0,0.0,1.0,0.0002230869286,-0.00173522555269,9.12789255381e-05,1.21846967915e-07,0.0,0.0,0.0,1.21846967915e-07,0.0,0.0,0.0,1.21846967915e-07,0.0597564503551,-0.0162599235773,9.8184709549,9e-08,0.0,0.0,0.0,9e-08,0.0,0.0,0.0,9e-08
1560469595024027915,33060,1560469594945181248,base_link,-0.0022162189305,0.00152326020362,-0.601448688604,-0.798906989979,1.0,0.0,0.0,0.0,1.0,0.0,0.0,0.0,1.0,0.00106961396523,-0.00109862175304,-0.000347986002453,1.21846967915e-07,0.0,0.0,0.0,1.21846967915e-07,0.0,0.0,0.0,1.21846967915e-07,0.0607060790062,0.0160884335637,9.81923007965,9e-08,0.0,0.0,0.0,9e-08,0.0,0.0,0.0,9e-08
1560469595024073331,33061,1560469594969181248,base_link,-0.0022143826203,0.00152259766669,-0.601437035,-0.798915777597,1.0,0.0,0.0,0.0,1.0,0.0,0.0,0.0,1.0,-0.00119361840189,-0.00047144680866,-0.00191999110393,1.21846967915e-07,0.0,0.0,0.0,1.21846967915e-07,0.0,0.0,0.0,1.21846967915e-07,0.074584916234,0.0174241960049,9.78796768188,9e-08,0.0,0.0,0.0,9e-08,0.0,0.0,0.0,9e-08
1560469595024161349,33062,1560469594985181248,base_link,-0.0022125982528,0.00151868924619,-0.601428658314,-0.798922131234,1.0,0.0,0.0,0.0,1.0,0.0,0.0,0.0,1.0,0.000831895857118,5.98662518314e-05,-0.00184234220069,1.21846967915e-07,0.0,0.0,0.0,1.21846967915e-07,0.0,0.0,0.0,1.21846967915e-07,0.0230845436454,0.00208865106106,9.78255462646,9e-08,0.0,0.0,0.0,9e-08,0.0,0.0,0.0,9e-08
1560469595024195994,33063,1560469595007179200,base_link,-0.00221709430079,0.0015223318205,-0.601414981662,-0.798932351845,1.0,0.0,0.0,0.0,1.0,0.0,0.0,0.0,1.0,-0.000331182207447,-0.000147095081047,-0.00161302345805,1.21846967915e-07,0.0,0.0,0.0,1.21846967915e-07,0.0,0.0,0.0,1.21846967915e-07,0.0636903494596,-0.018378727138,9.86385250092,9e-08,0.0,0.0,0.0,9e-08,0.0,0.0,0.0,9e-08
1560469595033656145,33064,1560469595031179200,base_link,-0.00221528013415,0.00151531391748,-0.601399345181,-0.798944110816,1.0,0.0,0.0,0.0,1.0,0.0,0.0,0.0,1.0,0.000944608589634,0.000811184116174,-0.00152813678142,1.21846967915e-07,0.0,0.0,0.0,1.21846967915e-07,0.0,0.0,0.0,1.21846967915e-07,0.0470300093293,0.00957988202572,9.75847816467,9e-08,0.0,0.0,0.0,9e-08,0.0,0.0,0.0,9e-08
1560469595051598605,33065,1560469595047179200,base_link,-0.00222561191546,0.00151400419593,-0.601388576661,-0.798952266231,1.0,0.0,0.0,0.0,1.0,0.0,0.0,0.0,1.0,-0.000549961230718,-0.000150265012053,-0.00203522644006,1.21846967915e-07,0.0,0.0,0.0,1.21846967915e-07,0.0,0.0,0.0,1.21846967915e-07,0.0819550454617,-0.0166342929006,9.84483146667,9e-08,0.0,0.0,0.0,9e-08,0.0,0.0,0.0,9e-08
1560469595073595040,33066,1560469595071179200,base_link,-0.00220994444191,0.00151901773643,-0.601371159476,-0.798965384437,1.0,0.0,0.0,0.0,1.0,0.0,0.0,0.0,1.0,-0.00279184896499,-0.000149232539115,-0.0020052138716,1.21846967915e-07,0.0,0.0,0.0,1.21846967915e-07,0.0,0.0,0.0,1.21846967915e-07,0.0462123900652,0.0182668082416,9.77893066406,9e-08,0.0,0.0,0.0,9e-08,0.0,0.0,0.0,9e-08
1560469595094181968,33067,1560469595091179200,base_link,-0.0022214942836,0.00152201876491,-0.601358157173,-0.798975099286,1.0,0.0,0.0,0.0,1.0,0.0,0.0,0.0,1.0,0.000515330466442,-0.00269993953407,-0.00171578186564,1.21846967915e-07,0.0,0.0,0.0,1.21846967915e-07,0.0,0.0,0.0,1.21846967915e-07,0.0547289177775,0.0128331296146,9.73264598846,9e-08,0.0,0.0,0.0,9e-08,0.0,0.0,0.0,9e-08
1560469595113923925,33068,1560469595111176384,base_link,-0.00221572234679,0.00151645912638,-0.601347620461,-0.798983107187,1.0,0.0,0.0,0.0,1.0,0.0,0.0,0.0,1.0,-0.0012865253957,-0.000141682394315,-0.00128048367333,1.21846967915e-07,0.0,0.0,0.0,1.21846967915e-07,0.0,0.0,0.0,1.21846967915e-07,0.0810279846191,0.0092860609293,9.80658245087,9e-08,0.0,0.0,0.0,9e-08,0.0,0.0,0.0,9e-08
1560469595131576937,33069,1560469595127176384,base_link,-0.00222288883392,0.00151835585804,-0.60133567183,-0.798992021246,1.0,0.0,0.0,0.0,1.0,0.0,0.0,0.0,1.0,-0.000329858972691,-0.000890650553629,-0.000754856853746,1.21846967915e-07,0.0,0.0,0.0,1.21846967915e-07,0.0,0.0,0.0,1.21846967915e-07,0.0307688489556,0.030851136893,9.82812023163,9e-08,0.0,0.0,0.0,9e-08,0.0,0.0,0.0,9e-08
1560469595150689450,33070,1560469595147176384,base_link,-0.00222294538643,0.00151802271683,-0.601325156191,-0.79899992378,1.0,0.0,0.0,0.0,1.0,0.0,0.0,0.0,1.0,0.00136219023261,0.00123364722822,-0.00217403122224,1.21846967915e-07,0.0,0.0,0.0,1.21846967915e-07,0.0,0.0,0.0,1.21846967915e-07,0.0305179730058,0.0140871591866,9.80743408203,9e-08,0.0,0.0,0.0,9e-08,0.0,0.0,0.0,9e-08
1560469595170772733,33071,1560469595167176384,base_link,-0.0022271640637,0.00150843657254,-0.601310172986,-0.799011282355,1.0,0.0,0.0,0.0,1.0,0.0,0.0,0.0,1.0,0.00190812512301,0.00049577257596,-0.00100551568903,1.21846967915e-07,0.0,0.0,0.0,1.21846967915e-07,0.0,0.0,0.0,1.21846967915e-07,0.0293207839131,0.0396602898836,9.81141757965,9e-08,0.0,0.0,0.0,9e-08,0.0,0.0,0.0,9e-08
1560469595190721680,33072,1560469595187176384,base_link,-0.00222392513602,0.00150312199489,-0.601294620799,-0.799022957032,1.0,0.0,0.0,0.0,1.0,0.0,0.0,0.0,1.0,0.00146069319453,0.000911895360332,-0.00270579382777,1.21846967915e-07,0.0,0.0,0.0,1.21846967915e-07,0.0,0.0,0.0,1.21846967915e-07,0.0496298521757,0.0091966688633,9.80143356323,9e-08,0.0,0.0,0.0,9e-08,0.0,0.0,0.0,9e-08
1560469595211758821,33073,1560469595207174336,base_link,-0.00222711273839,0.00150520801694,-0.601281681717,-0.799032608661,1.0,0.0,0.0,0.0,1.0,0.0,0.0,0.0,1.0,0.000633922638372,-0.000144088844536,-0.000984097598121,1.21846967915e-07,0.0,0.0,0.0,1.21846967915e-07,0.0,0.0,0.0,1.21846967915e-07,0.0462689250708,0.0209977924824,9.79081726074,9e-08,0.0,0.0,0.0,9e-08,0.0,0.0,0.0,9e-08
1560469595234063478,33074,1560469595231174336,base_link,-0.00222547576138,0.00150707252107,-0.601268152578,-0.799042850345,1.0,0.0,0.0,0.0,1.0,0.0,0.0,0.0,1.0,0.00145624158904,-4.5495962695e-05,-0.00301606627181,1.21846967915e-07,0.0,0.0,0.0,1.21846967915e-07,0.0,0.0,0.0,1.21846967915e-07,0.0557596534491,0.0100911557674,9.79071521759,9e-08,0.0,0.0,0.0,9e-08,0.0,0.0,0.0,9e-08
1560469595253652219,33075,1560469595251174336,base_link,-0.00222569131123,0.00150556589472,-0.6012553294,-0.799052554657,1.0,0.0,0.0,0.0,1.0,0.0,0.0,0.0,1.0,0.000538281165063,-0.00152677390724,-0.000341904815286,1.21846967915e-07,0.0,0.0,0.0,1.21846967915e-07,0.0,0.0,0.0,1.21846967915e-07,0.0379170924425,0.0345824100077,9.84548187256,9e-08,0.0,0.0,0.0,9e-08,0.0,0.0,0.0,9e-08
1560469595272032295,33076,1560469595267174336,base_link,-0.00223285672823,0.00149997999672,-0.60124449766,-0.799060520411,1.0,0.0,0.0,0.0,1.0,0.0,0.0,0.0,1.0,0.00220814580098,0.000175131601281,-0.00174837000668,1.21846967915e-07,0.0,0.0,0.0,1.21846967915e-07,0.0,0.0,0.0,1.21846967915e-07,0.0656896233559,0.0334703624249,9.81629180908,9e-08,0.0,0.0,0.0,9e-08,0.0,0.0,0.0,9e-08
1560469595293807364,33077,1560469595291174336,base_link,-0.00223375909884,0.00149935388553,-0.601238238853,-0.799065261932,1.0,0.0,0.0,0.0,1.0,0.0,0.0,0.0,1.0,-0.000841232482344,0.000820926332381,0.000522261369042,1.21846967915e-07,0.0,0.0,0.0,1.21846967915e-07,0.0,0.0,0.0,1.21846967915e-07,0.0264092087746,0.0348671600223,9.80685997009,9e-08,0.0,0.0,0.0,9e-08,0.0,0.0,0.0,9e-08
1560469595311930261,33078,1560469595307172288,base_link,-0.00222587426313,0.00150695982764,-0.601231748238,-0.799070319553,1.0,0.0,0.0,0.0,1.0,0.0,0.0,0.0,1.0,-0.000845874310471,0.000290731346468,-0.000114357448183,1.21846967915e-07,0.0,0.0,0.0,1.21846967915e-07,0.0,0.0,0.0,1.21846967915e-07,0.0735441893339,0.0149617120624,9.80740833282,9e-08,0.0,0.0,0.0,9e-08,0.0,0.0,0.0,9e-08
1560469595333833637,33079,1560469595331172288,base_link,-0.0022308252419,0.00150573061316,-0.60122382463,-0.799076135819,1.0,0.0,0.0,0.0,1.0,0.0,0.0,0.0,1.0,0.00223686126992,-0.000357969081961,-0.000576004153118,1.21846967915e-07,0.0,0.0,0.0,1.21846967915e-07,0.0,0.0,0.0,1.21846967915e-07,0.0595406144857,0.0248889401555,9.82215976715,9e-08,0.0,0.0,0.0,9e-08,0.0,0.0,0.0,9e-08
1560469595353167720,33080,1560469595347172288,base_link,-0.00222822226241,0.00150483639204,-0.601213877974,-0.799083722251,1.0,0.0,0.0,0.0,1.0,0.0,0.0,0.0,1.0,-0.000338216224918,0.000915810698643,-0.0018286309205,1.21846967915e-07,0.0,0.0,0.0,1.21846967915e-07,0.0,0.0,0.0,1.21846967915e-07,0.0937157571316,0.0130187347531,9.8125333786,9e-08,0.0,0.0,0.0,9e-08,0.0,0.0,0.0,9e-08
1560469595371778022,33081,1560469595369172288,base_link,-0.00222248070096,0.00149991908136,-0.601201929343,-0.799092720603,1.0,0.0,0.0,0.0,1.0,0.0,0.0,0.0,1.0,-0.000239857661654,0.00123083568178,-0.00247090053745,1.21846967915e-07,0.0,0.0,0.0,1.21846967915e-07,0.0,0.0,0.0,1.21846967915e-07,0.0738281607628,0.00736613571644,9.82035827637,9e-08,0.0,0.0,0.0,9e-08,0.0,0.0,0.0,9e-08
1560469595391521946,33082,1560469595389172288,base_link,-0.00221998876854,0.00149378375145,-0.601188031419,-0.799103162485,1.0,0.0,0.0,0.0,1.0,0.0,0.0,0.0,1.0,0.000417803355958,-0.000781052047387,-0.000979349715635,1.21846967915e-07,0.0,0.0,0.0,1.21846967915e-07,0.0,0.0,0.0,1.21846967915e-07,0.0560148507357,-0.0200266242027,9.7712430954,9e-08,0.0,0.0,0.0,9e-08,0.0,0.0,0.0,9e-08
1560469595411885021,33083,1560469595409170240,base_link,-0.00222025453241,0.00148656902593,-0.601178980384,-0.799110021885,1.0,0.0,0.0,0.0,1.0,0.0,0.0,0.0,1.0,0.000306659407215,0.00198462954722,-0.00120179564692,1.21846967915e-07,0.0,0.0,0.0,1.21846967915e-07,0.0,0.0,0.0,1.21846967915e-07,0.0401256680489,0.00916453450918,9.79413318634,9e-08,0.0,0.0,0.0,9e-08,0.0,0.0,0.0,9e-08
1560469595432288799,33084,1560469595429170240,base_link,-0.00221930606368,0.00149017142903,-0.601167853616,-0.799118451254,1.0,0.0,0.0,0.0,1.0,0.0,0.0,0.0,1.0,-0.000747056445107,-0.00120549649,-0.000327639863826,1.21846967915e-07,0.0,0.0,0.0,1.21846967915e-07,0.0,0.0,0.0,1.21846967915e-07,0.0698738247156,-0.00549422204494,9.81109237671,9e-08,0.0,0.0,0.0,9e-08,0.0,0.0,0.0,9e-08
1560469595452782736,33085,1560469595449170240,base_link,-0.00222184672839,0.00149911874398,-0.601155599419,-0.79912750229,1.0,0.0,0.0,0.0,1.0,0.0,0.0,0.0,1.0,8.5864259745e-05,-0.000787725904956,-0.00193348864559,1.21846967915e-07,0.0,0.0,0.0,1.21846967915e-07,0.0,0.0,0.0,1.21846967915e-07,0.0524680539966,0.0328977294266,9.79104423523,9e-08,0.0,0.0,0.0,9e-08,0.0,0.0,0.0,9e-08
1560469595472539344,33086,1560469595469170240,base_link,-0.00222016731642,0.00149073065679,-0.601143829912,-0.799136321518,1.0,0.0,0.0,0.0,1.0,0.0,0.0,0.0,1.0,0.000311094161589,0.00146062206477,-0.000457059941255,1.21846967915e-07,0.0,0.0,0.0,1.21846967915e-07,0.0,0.0,0.0,1.21846967915e-07,0.0609314069152,-0.00073767453432,9.81611919403,9e-08,0.0,0.0,0.0,9e-08,0.0,0.0,0.0,9e-08
1560469595491212988,33087,1560469595489170240,base_link,-0.00222769238104,0.00149673275491,-0.601132408116,-0.799145045916,1.0,0.0,0.0,0.0,1.0,0.0,0.0,0.0,1.0,-0.000980330863968,-0.00121379713528,-0.00202355044894,1.21846967915e-07,0.0,0.0,0.0,1.21846967915e-07,0.0,0.0,0.0,1.21846967915e-07,0.100592128932,0.023248590529,9.86224460602,9e-08,0.0,0.0,0.0,9e-08,0.0,0.0,0.0,9e-08
1560469595511961286,33088,1560469595509167424,base_link,-0.00222614904082,0.00149492114013,-0.601120080163,-0.799154339296,1.0,0.0,0.0,0.0,1.0,0.0,0.0,0.0,1.0,-0.000545337970834,-0.000782226561569,-0.00160569848958,1.21846967915e-07,0.0,0.0,0.0,1.21846967915e-07,0.0,0.0,0.0,1.21846967915e-07,0.0596032217145,0.0205218791962,9.7902135849,9e-08,0.0,0.0,0.0,9e-08,0.0,0.0,0.0,9e-08
1560469595531740718,33089,1560469595529167424,base_link,-0.00223462496139,0.00150185779523,-0.601105033738,-0.799165508211,1.0,0.0,0.0,0.0,1.0,0.0,0.0,0.0,1.0,-0.000862719258294,-0.00111267575994,-0.00171798409428,1.21846967915e-07,0.0,0.0,0.0,1.21846967915e-07,0.0,0.0,0.0,1.21846967915e-07,0.0396572351456,-0.0256689861417,9.7931470871,9e-08,0.0,0.0,0.0,9e-08,0.0,0.0,0.0,9e-08
1560469595552849564,33090,1560469595549167424,base_link,-0.00222046868285,0.00149355803532,-0.601087426892,-0.799178900372,1.0,0.0,0.0,0.0,1.0,0.0,0.0,0.0,1.0,-0.00087021489162,0.00198483397253,-0.00172818126157,1.21846967915e-07,0.0,0.0,0.0,1.21846967915e-07,0.0,0.0,0.0,1.21846967915e-07,0.0635203272104,0.0496427491307,9.76188755035,9e-08,0.0,0.0,0.0,9e-08,0.0,0.0,0.0,9e-08
1560469595571893538,33091,1560469595569167424,base_link,-0.00222225543758,0.00149212887026,-0.601080304074,-0.799184253022,1.0,0.0,0.0,0.0,1.0,0.0,0.0,0.0,1.0,0.00160227739252,-0.00120488414541,-0.000150174251758,1.21846967915e-07,0.0,0.0,0.0,1.21846967915e-07,0.0,0.0,0.0,1.21846967915e-07,0.0669213235378,0.00847257673741,9.80587100983,9e-08,0.0,0.0,0.0,9e-08,0.0,0.0,0.0,9e-08
1560469595591923618,33092,1560469595589167424,base_link,-0.0022210989511,0.00149323497808,-0.601068018268,-0.799193504255,1.0,0.0,0.0,0.0,1.0,0.0,0.0,0.0,1.0,-0.000745099445339,0.00102891668212,-0.000339377205819,1.21846967915e-07,0.0,0.0,0.0,1.21846967915e-07,0.0,0.0,0.0,1.21846967915e-07,0.0668264850974,-0.0010886117816,9.80293464661,9e-08,0.0,0.0,0.0,9e-08,0.0,0.0,0.0,9e-08
1560469595611997484,33093,1560469595609165376,base_link,-0.00222236319192,0.00149224304541,-0.60105448913,-0.799203661645,1.0,0.0,0.0,0.0,1.0,0.0,0.0,0.0,1.0,-0.000241016430664,-0.0013186208671,-0.00256375246681,1.21846967915e-07,0.0,0.0,0.0,1.21846967915e-07,0.0,0.0,0.0,1.21846967915e-07,0.0439234226942,0.00782231986523,9.83297348022,9e-08,0.0,0.0,0.0,9e-08,0.0,0.0,0.0,9e-08
1560469595632665518,33094,1560469595629165376,base_link,-0.00222216641059,0.0014942643243,-0.601043604706,-0.799211848671,1.0,0.0,0.0,0.0,1.0,0.0,0.0,0.0,1.0,-0.00214053876698,-0.000465181015898,-0.000952268193942,1.21846967915e-07,0.0,0.0,0.0,1.21846967915e-07,0.0,0.0,0.0,1.21846967915e-07,0.0463560372591,-0.00197647511959,9.804936409,9e-08,0.0,0.0,0.0,9e-08,0.0,0.0,0.0,9e-08
1560469595651309704,33095,1560469595649165376,base_link,-0.00222172358057,0.00149032256499,-0.601028558281,-0.799223101879,1.0,0.0,0.0,0.0,1.0,0.0,0.0,0.0,1.0,-0.00138532218989,-0.000888904090971,-0.00074291380588,1.21846967915e-07,0.0,0.0,0.0,1.21846967915e-07,0.0,0.0,0.0,1.21846967915e-07,0.052675627172,-0.0132767632604,9.81741333008,9e-08,0.0,0.0,0.0,9e-08,0.0,0.0,0.0,9e-08
1560469595672908912,33096,1560469595669165376,base_link,-0.00222405984953,0.00149146670375,-0.601013817421,-0.799234133817,1.0,0.0,0.0,0.0,1.0,0.0,0.0,0.0,1.0,-0.000442060554633,0.000703405588865,-0.0016194677446,1.21846967915e-07,0.0,0.0,0.0,1.21846967915e-07,0.0,0.0,0.0,1.21846967915e-07,0.0186659321189,0.0364532135427,9.80283260345,9e-08,0.0,0.0,0.0,9e-08,0.0,0.0,0.0,9e-08
1560469595691807058,33097,1560469595689165376,base_link,-0.00222434833318,0.00148985553346,-0.601003818081,-0.799241604346,1.0,0.0,0.0,0.0,1.0,0.0,0.0,0.0,1.0,0.00179429608397,0.000392353278585,-0.00100897427183,1.21846967915e-07,0.0,0.0,0.0,1.21846967915e-07,0.0,0.0,0.0,1.21846967915e-07,0.024456627667,-0.00706371665001,9.84134292603,9e-08,0.0,0.0,0.0,9e-08,0.0,0.0,0.0,9e-08
1560469595712291197,33098,1560469595709164608,base_link,-0.0022324022502,0.00149282762714,-0.600994040012,-0.799249022191,1.0,0.0,0.0,0.0,1.0,0.0,0.0,0.0,1.0,0.000525995914359,0.000171666499227,-0.000991045613773,1.21846967915e-07,0.0,0.0,0.0,1.21846967915e-07,0.0,0.0,0.0,1.21846967915e-07,0.0139653980732,0.00905007123947,9.84659671783,9e-08,0.0,0.0,0.0,9e-08,0.0,0.0,0.0,9e-08
1560469595732459692,33099,1560469595726164608,base_link,-0.00222500539597,0.00149115072587,-0.600984388384,-0.799256313596,1.0,0.0,0.0,0.0,1.0,0.0,0.0,0.0,1.0,0.000730696308892,0.0019818986766,-0.00132189178839,1.21846967915e-07,0.0,0.0,0.0,1.21846967915e-07,0.0,0.0,0.0,1.21846967915e-07,0.0271109566092,-0.0149656012654,9.79276943207,9e-08,0.0,0.0,0.0,9e-08,0.0,0.0,0.0,9e-08
1560469595750748026,33100,1560469595746164608,base_link,-0.00223507627017,0.00149048814777,-0.600970764415,-0.799266481523,1.0,0.0,0.0,0.0,1.0,0.0,0.0,0.0,1.0,0.000933870323934,-0.000895218108781,-0.00205562729388,1.21846967915e-07,0.0,0.0,0.0,1.21846967915e-07,0.0,0.0,0.0,1.21846967915e-07,0.0369432419538,0.0157496631145,9.85207939148,9e-08,0.0,0.0,0.0,9e-08,0.0,0.0,0.0,9e-08
1560469595771619915,33101,1560469595766164608,base_link,-0.0022340973026,0.00149391920582,-0.600957846406,-0.799276196372,1.0,0.0,0.0,0.0,1.0,0.0,0.0,0.0,1.0,-0.00117911328562,-0.000250941840932,-0.000859789608512,1.21846967915e-07,0.0,0.0,0.0,1.21846967915e-07,0.0,0.0,0.0,1.21846967915e-07,0.0486220046878,0.0145438797772,9.7987575531,9e-08,0.0,0.0,0.0,9e-08,0.0,0.0,0.0,9e-08
1560469595793319525,33102,1560469595790164608,base_link,-0.00223946147689,0.00149352473766,-0.600943210913,-0.799287207236,1.0,0.0,0.0,0.0,1.0,0.0,0.0,0.0,1.0,0.000411423738115,-0.00216857995838,-0.00129205582198,1.21846967915e-07,0.0,0.0,0.0,1.21846967915e-07,0.0,0.0,0.0,1.21846967915e-07,0.0559547767043,-0.0148613229394,9.82038784027,9e-08,0.0,0.0,0.0,9e-08,0.0,0.0,0.0,9e-08
1560469595813295751,33103,1560469595810162560,base_link,-0.00224047929859,0.00149789677349,-0.600926373247,-0.799299914511,1.0,0.0,0.0,0.0,1.0,0.0,0.0,0.0,1.0,-0.000342717685271,0.000481405440951,-0.00236432463862,1.21846967915e-07,0.0,0.0,0.0,1.21846967915e-07,0.0,0.0,0.0,1.21846967915e-07,0.0214997157454,0.0202016457915,9.80543994904,9e-08,0.0,0.0,0.0,9e-08,0.0,0.0,0.0,9e-08
1560469595831844080,33104,1560469595826162560,base_link,-0.00224336528758,0.00149745299681,-0.600916879669,-0.799306963571,1.0,0.0,0.0,0.0,1.0,0.0,0.0,0.0,1.0,0.000746568315662,0.000603900873102,-3.78645490855e-05,1.21846967915e-07,0.0,0.0,0.0,1.21846967915e-07,0.0,0.0,0.0,1.21846967915e-07,0.0722934156656,0.0246586762369,9.82320594788,9e-08,0.0,0.0,0.0,9e-08,0.0,0.0,0.0,9e-08
1560469595852023350,33105,1560469595846162560,base_link,-0.00224226350146,0.00150103453227,-0.600905752901,-0.799315308647,1.0,0.0,0.0,0.0,1.0,0.0,0.0,0.0,1.0,0.000514996820129,0.000275757571217,-0.00130934186745,1.21846967915e-07,0.0,0.0,0.0,1.21846967915e-07,0.0,0.0,0.0,1.21846967915e-07,-0.00598464906216,0.0196935795248,9.78426361084,9e-08,0.0,0.0,0.0,9e-08,0.0,0.0,0.0,9e-08
1560469595873440718,33106,1560469595870162560,base_link,-0.00224348975249,0.00149577568395,-0.600896248787,-0.799322536832,1.0,0.0,0.0,0.0,1.0,0.0,0.0,0.0,1.0,0.00233172625303,-0.00111446017399,-0.000902239931747,1.21846967915e-07,0.0,0.0,0.0,1.21846967915e-07,0.0,0.0,0.0,1.21846967915e-07,0.0483415871859,0.0168470069766,9.85330486298,9e-08,0.0,0.0,0.0,9e-08,0.0,0.0,0.0,9e-08
1560469595892023302,33107,1560469595886162560,base_link,-0.00223393834642,0.00149216673657,-0.600891180629,-0.799326424878,1.0,0.0,0.0,0.0,1.0,0.0,0.0,0.0,1.0,-0.00201755552553,0.00135275383946,0.000313695636578,1.21846967915e-07,0.0,0.0,0.0,1.21846967915e-07,0.0,0.0,0.0,1.21846967915e-07,0.0873567759991,0.0226060077548,9.82170009613,9e-08,0.0,0.0,0.0,9e-08,0.0,0.0,0.0,9e-08
1560469595911812360,33108,1560469595906160512,base_link,-0.00223222246755,0.00149410421567,-0.600871719321,-0.799340997151,1.0,0.0,0.0,0.0,1.0,0.0,0.0,0.0,1.0,0.000719274918083,-0.000682378537022,-0.00205069361255,1.21846967915e-07,0.0,0.0,0.0,1.21846967915e-07,0.0,0.0,0.0,1.21846967915e-07,0.0803709626198,-0.0233299583197,9.77204036713,9e-08,0.0,0.0,0.0,9e-08,0.0,0.0,0.0,9e-08
1560469595930826405,33109,1560469595927160512,base_link,-0.00223785166484,0.00149344637086,-0.60085986552,-0.799349900673,1.0,0.0,0.0,0.0,1.0,0.0,0.0,0.0,1.0,-0.000132980436319,-0.000506392098032,-0.00204183673486,1.21846967915e-07,0.0,0.0,0.0,1.21846967915e-07,0.0,0.0,0.0,1.21846967915e-07,0.0745773911476,-0.00841197371483,9.81309318542,9e-08,0.0,0.0,0.0,9e-08,0.0,0.0,0.0,9e-08
1560469595954709432,33110,1560469595951160512,base_link,-0.00223358549004,0.00148623740761,-0.600846842144,-0.799359636595,1.0,0.0,0.0,0.0,1.0,0.0,0.0,0.0,1.0,0.00146234617569,0.000388942251448,-0.0021741874516,1.21846967915e-07,0.0,0.0,0.0,1.21846967915e-07,0.0,0.0,0.0,1.21846967915e-07,0.0625682175159,0.00116501748562,9.79026603699,9e-08,0.0,0.0,0.0,9e-08,0.0,0.0,0.0,9e-08
1560469595971626539,33111,1560469595968160512,base_link,-0.00223086310821,0.00148955873568,-0.600836579386,-0.799367454836,1.0,0.0,0.0,0.0,1.0,0.0,0.0,0.0,1.0,-0.00126896775328,-0.000325433502439,-0.00114120752551,1.21846967915e-07,0.0,0.0,0.0,1.21846967915e-07,0.0,0.0,0.0,1.21846967915e-07,0.0595791041851,-0.00329751521349,9.81467723846,9e-08,0.0,0.0,0.0,9e-08,0.0,0.0,0.0,9e-08
1560469595991736058,33112,1560469595989160512,base_link,-0.0022232366689,0.00149119670051,-0.600823724597,-0.799377190758,1.0,0.0,0.0,0.0,1.0,0.0,0.0,0.0,1.0,-0.000785381067544,0.000696342904121,-0.00310206389986,1.21846967915e-07,0.0,0.0,0.0,1.21846967915e-07,0.0,0.0,0.0,1.21846967915e-07,0.0647001340985,0.0104742571712,9.7744550705,9e-08,0.0,0.0,0.0,9e-08,0.0,0.0,0.0,9e-08
1560469596013226670,33113,1560469596009158464,base_link,-0.00222902902059,0.0014965693124,-0.600810606391,-0.799386937216,1.0,0.0,0.0,0.0,1.0,0.0,0.0,0.0,1.0,-0.00033018659451,-0.000255595572526,-0.000977766700089,1.21846967915e-07,0.0,0.0,0.0,1.21846967915e-07,0.0,0.0,0.0,1.21846967915e-07,0.0741997808218,-0.0155086740851,9.81087398529,9e-08,0.0,0.0,0.0,9e-08,0.0,0.0,0.0,9e-08
1560469596031935515,33114,1560469596029158464,base_link,-0.00222122296327,0.00149374119301,-0.600799226742,-0.799395535173,1.0,0.0,0.0,0.0,1.0,0.0,0.0,0.0,1.0,0.000506912474521,-0.000362824153854,-0.00194350909442,1.21846967915e-07,0.0,0.0,0.0,1.21846967915e-07,0.0,0.0,0.0,1.21846967915e-07,0.0319696292281,0.00289159268141,9.78569793701,9e-08,0.0,0.0,0.0,9e-08,0.0,0.0,0.0,9e-08
1560469596051714391,33115,1560469596049158464,base_link,-0.00222435549486,0.00149335874329,-0.600788763787,-0.799403385024,1.0,0.0,0.0,0.0,1.0,0.0,0.0,0.0,1.0,-0.000328292051563,-0.0008878094377,-0.000861592299771,1.21846967915e-07,0.0,0.0,0.0,1.21846967915e-07,0.0,0.0,0.0,1.21846967915e-07,0.0642812177539,0.0368439294398,9.81774711609,9e-08,0.0,0.0,0.0,9e-08,0.0,0.0,0.0,9e-08
1560469596072153315,33116,1560469596069158464,base_link,-0.0022256918463,0.00148396246561,-0.60077490801,-0.799413784759,1.0,0.0,0.0,0.0,1.0,0.0,0.0,0.0,1.0,-0.000249769393122,0.00165495916735,-0.00279499450698,1.21846967915e-07,0.0,0.0,0.0,1.21846967915e-07,0.0,0.0,0.0,1.21846967915e-07,0.059629663825,0.0342842750251,9.78746891022,9e-08,0.0,0.0,0.0,9e-08,0.0,0.0,0.0,9e-08
1560469596091634808,33117,1560469596089158464,base_link,-0.00222739998727,0.00148118978744,-0.600762116442,-0.799423373167,1.0,0.0,0.0,0.0,1.0,0.0,0.0,0.0,1.0,0.000612740637735,-0.000895067700185,-0.00194278242998,1.21846967915e-07,0.0,0.0,0.0,1.21846967915e-07,0.0,0.0,0.0,1.21846967915e-07,0.0382840707898,0.0114927664399,9.79428195953,9e-08,0.0,0.0,0.0,9e-08,0.0,0.0,0.0,9e-08
1560469596111625262,33118,1560469596109156416,base_link,-0.00222639727094,0.00147305256454,-0.600744646573,-0.799436459763,1.0,0.0,0.0,0.0,1.0,0.0,0.0,0.0,1.0,0.00080680870451,0.000162489828654,-0.00333246495575,1.21846967915e-07,0.0,0.0,0.0,1.21846967915e-07,0.0,0.0,0.0,1.21846967915e-07,0.0279503539205,0.0550904721022,9.77949428558,9e-08,0.0,0.0,0.0,9e-08,0.0,0.0,0.0,9e-08
1560469596132436627,33119,1560469596129156416,base_link,-0.00222189249724,0.00147897123331,-0.600730927774,-0.799446806815,1.0,0.0,0.0,0.0,1.0,0.0,0.0,0.0,1.0,0.000193255371414,0.00272223120555,-0.00195298122708,1.21846967915e-07,0.0,0.0,0.0,1.21846967915e-07,0.0,0.0,0.0,1.21846967915e-07,0.0541542097926,0.0171198733151,9.81022167206,9e-08,0.0,0.0,0.0,9e-08,0.0,0.0,0.0,9e-08
1560469596151660340,33120,1560469596149156416,base_link,-0.00222691040059,0.00147773798524,-0.600722245523,-0.799453297429,1.0,0.0,0.0,0.0,1.0,0.0,0.0,0.0,1.0,0.000428996514529,-0.00257750903256,0.00030680175405,1.21846967915e-07,0.0,0.0,0.0,1.21846967915e-07,0.0,0.0,0.0,1.21846967915e-07,0.0731269940734,0.0366904363036,9.81227397919,9e-08,0.0,0.0,0.0,9e-08,0.0,0.0,0.0,9e-08
1560469596172107804,33121,1560469596169156416,base_link,-0.00221888607692,0.00147088183721,-0.600708568871,-0.799463686627,1.0,0.0,0.0,0.0,1.0,0.0,0.0,0.0,1.0,-0.00256454246119,0.00208987132646,-0.000952331582084,1.21846967915e-07,0.0,0.0,0.0,1.21846967915e-07,0.0,0.0,0.0,1.21846967915e-07,0.0791736543179,-0.00924548506737,9.8174571991,9e-08,0.0,0.0,0.0,9e-08,0.0,0.0,0.0,9e-08
1560469596191773363,33122,1560469596189156416,base_link,-0.00221414414487,0.00146526519342,-0.600696662386,-0.799472642833,1.0,0.0,0.0,0.0,1.0,0.0,0.0,0.0,1.0,0.000621132086962,-0.00387573125772,-0.0013895961456,1.21846967915e-07,0.0,0.0,0.0,1.21846967915e-07,0.0,0.0,0.0,1.21846967915e-07,0.0263652056456,-0.0199998915195,9.81955242157,9e-08,0.0,0.0,0.0,9e-08,0.0,0.0,0.0,9e-08
1560469596212200410,33123,1560469596209154368,base_link,-0.00222495481152,0.00145920954739,-0.600678655145,-0.799486182508,1.0,0.0,0.0,0.0,1.0,0.0,0.0,0.0,1.0,-0.000257976644207,0.0022903252393,-0.00332572869956,1.21846967915e-07,0.0,0.0,0.0,1.21846967915e-07,0.0,0.0,0.0,1.21846967915e-07,0.0209816023707,0.0331140495837,9.88164234161,9e-08,0.0,0.0,0.0,9e-08,0.0,0.0,0.0,9e-08
1560469596231534363,33124,1560469596229154368,base_link,-0.00221607726112,0.0014538319141,-0.600663714087,-0.799497414643,1.0,0.0,0.0,0.0,1.0,0.0,0.0,0.0,1.0,0.00199430575594,-0.00185389618855,-0.00195198715664,1.21846967915e-07,0.0,0.0,0.0,1.21846967915e-07,0.0,0.0,0.0,1.21846967915e-07,0.0179727673531,0.00162541121245,9.76151275635,9e-08,0.0,0.0,0.0,9e-08,0.0,0.0,0.0,9e-08
1560469596251704112,33125,1560469596249154368,base_link,-0.0022284514359,0.00145529902779,-0.600657950506,-0.799501660938,1.0,0.0,0.0,0.0,1.0,0.0,0.0,0.0,1.0,-0.00129911990371,0.000704962119926,-0.00128280289937,1.21846967915e-07,0.0,0.0,0.0,1.21846967915e-07,0.0,0.0,0.0,1.21846967915e-07,0.02084120363,0.00151114910841,9.83244609833,9e-08,0.0,0.0,0.0,9e-08,0.0,0.0,0.0,9e-08
1560469596271660148,33126,1560469596269154368,base_link,-0.0022148868596,0.00145127783154,-0.600649510599,-0.799508162089,1.0,0.0,0.0,0.0,1.0,0.0,0.0,0.0,1.0,0.000102911115391,0.00156361283734,-0.000239393441007,1.21846967915e-07,0.0,0.0,0.0,1.21846967915e-07,0.0,0.0,0.0,1.21846967915e-07,0.0242889598012,0.0323174893856,9.806640625,9e-08,0.0,0.0,0.0,9e-08,0.0,0.0,0.0,9e-08
1560469596291719297,33127,1560469596289154368,base_link,-0.00221520621253,0.00145814879683,-0.600636582053,-0.799517803181,1.0,0.0,0.0,0.0,1.0,0.0,0.0,0.0,1.0,-1.43905926961e-05,0.00102358462755,-0.00098381540738,1.21846967915e-07,0.0,0.0,0.0,1.21846967915e-07,0.0,0.0,0.0,1.21846967915e-07,0.079128921032,0.00915112346411,9.84377098083,9e-08,0.0,0.0,0.0,9e-08,0.0,0.0,0.0,9e-08
1560469596311460496,33128,1560469596309154368,base_link,-0.00220744032642,0.00145454194856,-0.600626013731,-0.799525758399,1.0,0.0,0.0,0.0,1.0,0.0,0.0,0.0,1.0,0.00039777852362,6.55467156321e-05,-0.00193984224461,1.21846967915e-07,0.0,0.0,0.0,1.21846967915e-07,0.0,0.0,0.0,1.21846967915e-07,0.0375607311726,0.00268450379372,9.80201435089,9e-08,0.0,0.0,0.0,9e-08,0.0,0.0,0.0,9e-08
1560469596330734987,33129,1560469596325154368,base_link,-0.00221412624069,0.00145933347724,-0.600617731875,-0.799531932912,1.0,0.0,0.0,0.0,1.0,0.0,0.0,0.0,1.0,0.00147458899301,-0.00142285099719,-0.000989674124867,1.21846967915e-07,0.0,0.0,0.0,1.21846967915e-07,0.0,0.0,0.0,1.21846967915e-07,0.06130938977,-0.00326751172542,9.82867622375,9e-08,0.0,0.0,0.0,9e-08,0.0,0.0,0.0,9e-08
1560469596354162111,33130,1560469596350154368,base_link,-0.00220783211924,0.00146192065165,-0.600603739122,-0.799542553918,1.0,0.0,0.0,0.0,1.0,0.0,0.0,0.0,1.0,-0.000446486461442,-0.00122539536096,-0.000965314684436,1.21846967915e-07,0.0,0.0,0.0,1.21846967915e-07,0.0,0.0,0.0,1.21846967915e-07,0.0580520629883,0.0415299981833,9.82705783844,9e-08,0.0,0.0,0.0,9e-08,0.0,0.0,0.0,9e-08
1560469596370601600,33131,1560469596366154368,base_link,-0.00221217682547,0.0014674534545,-0.600598892234,-0.7995461364,1.0,0.0,0.0,0.0,1.0,0.0,0.0,0.0,1.0,0.00116729922593,-0.00120233674534,-0.000140407821164,1.21846967915e-07,0.0,0.0,0.0,1.21846967915e-07,0.0,0.0,0.0,1.21846967915e-07,0.0576049238443,0.0163235254586,9.83382606506,9e-08,0.0,0.0,0.0,9e-08,0.0,0.0,0.0,9e-08
1560469596394382376,33132,1560469596390154368,base_link,-0.00221009755351,0.00146438718895,-0.600582802675,-0.799558264155,1.0,0.0,0.0,0.0,1.0,0.0,0.0,0.0,1.0,0.00124738411978,0.00207985029556,-0.00238411780447,1.21846967915e-07,0.0,0.0,0.0,1.21846967915e-07,0.0,0.0,0.0,1.21846967915e-07,0.0558879822493,0.0131180174649,9.77844524384,9e-08,0.0,0.0,0.0,9e-08,0.0,0.0,0.0,9e-08
1560469596412488750,33133,1560469596406152064,base_link,-0.00221480536472,0.00146141003271,-0.60056942105,-0.799568189738,1.0,0.0,0.0,0.0,1.0,0.0,0.0,0.0,1.0,0.00125272385776,-0.000255477963947,-0.00163126341067,1.21846967915e-07,0.0,0.0,0.0,1.21846967915e-07,0.0,0.0,0.0,1.21846967915e-07,0.0413827449083,-0.0192734897137,9.76029491425,9e-08,0.0,0.0,0.0,9e-08,0.0,0.0,0.0,9e-08
1560469596433761129,33134,1560469596430152064,base_link,-0.00221360911862,0.0014610754921,-0.600558842191,-0.799576155493,1.0,0.0,0.0,0.0,1.0,0.0,0.0,0.0,1.0,-0.000347971741576,0.000166262383573,-0.00203797104768,1.21846967915e-07,0.0,0.0,0.0,1.21846967915e-07,0.0,0.0,0.0,1.21846967915e-07,0.0787601917982,-0.0114205703139,9.81272792816,9e-08,0.0,0.0,0.0,9e-08,0.0,0.0,0.0,9e-08
1560469596451670803,33135,1560469596446152064,base_link,-0.00221120053324,0.00146980017785,-0.60055070785,-0.799582266786,1.0,0.0,0.0,0.0,1.0,0.0,0.0,0.0,1.0,-0.000773721549194,-4.42758500867e-05,-0.00192488823086,1.21846967915e-07,0.0,0.0,0.0,1.21846967915e-07,0.0,0.0,0.0,1.21846967915e-07,0.0414202660322,0.0235350094736,9.76219463348,9e-08,0.0,0.0,0.0,9e-08,0.0,0.0,0.0,9e-08
1560469596473147844,33136,1560469596466152064,base_link,-0.00221131705446,0.00146771954764,-0.600545924182,-0.799585870341,1.0,0.0,0.0,0.0,1.0,0.0,0.0,0.0,1.0,0.00138831639197,0.00103222555481,0.00059532863088,1.21846967915e-07,0.0,0.0,0.0,1.21846967915e-07,0.0,0.0,0.0,1.21846967915e-07,0.0646345242858,0.0239641554654,9.75195121765,9e-08,0.0,0.0,0.0,9e-08,0.0,0.0,0.0,9e-08
1560469596492759228,33137,1560469596490152064,base_link,-0.00222055421132,0.00146008956865,-0.600532395044,-0.799596027732,1.0,0.0,0.0,0.0,1.0,0.0,0.0,0.0,1.0,0.00199127523229,-0.000364164297935,-0.00206690072082,1.21846967915e-07,0.0,0.0,0.0,1.21846967915e-07,0.0,0.0,0.0,1.21846967915e-07,0.0555908977985,-0.00516887009144,9.823346138,9e-08,0.0,0.0,0.0,9e-08,0.0,0.0,0.0,9e-08
1560469596511820225,33138,1560469596506150016,base_link,-0.00221935092703,0.00145938735441,-0.600523101664,-0.799603045182,1.0,0.0,0.0,0.0,1.0,0.0,0.0,0.0,1.0,0.00102999538649,-0.000259528460447,-0.00237885466777,1.21846967915e-07,0.0,0.0,0.0,1.21846967915e-07,0.0,0.0,0.0,1.21846967915e-07,0.0522861778736,-0.00888293236494,9.79563522339,9e-08,0.0,0.0,0.0,9e-08,0.0,0.0,0.0,9e-08
1560469596532556186,33139,1560469596530150016,base_link,-0.00222529647264,0.00146547638041,-0.600504399,-0.799617111693,1.0,0.0,0.0,0.0,1.0,0.0,0.0,0.0,1.0,0.00199467944913,-0.0014276271686,-0.00185378966853,1.21846967915e-07,0.0,0.0,0.0,1.21846967915e-07,0.0,0.0,0.0,1.21846967915e-07,0.0644951984286,0.0153317973018,9.7821598053,9e-08,0.0,0.0,0.0,9e-08,0.0,0.0,0.0,9e-08
1560469596550657001,33140,1560469596546150016,base_link,-0.00222504013419,0.001470188431,-0.600497002228,-0.79962256971,1.0,0.0,0.0,0.0,1.0,0.0,0.0,0.0,1.0,-0.00150594045408,0.00102410989348,-0.000967481872067,1.21846967915e-07,0.0,0.0,0.0,1.21846967915e-07,0.0,0.0,0.0,1.21846967915e-07,0.0787984877825,0.00454104691744,9.8188791275,9e-08,0.0,0.0,0.0,9e-08,0.0,0.0,0.0,9e-08
1560469596572206896,33141,1560469596566150016,base_link,-0.00221958849696,0.00147312640384,-0.600488225147,-0.799629239448,1.0,0.0,0.0,0.0,1.0,0.0,0.0,0.0,1.0,-0.0012096996652,-0.000899388454854,-0.00245403777808,1.21846967915e-07,0.0,0.0,0.0,1.21846967915e-07,0.0,0.0,0.0,1.21846967915e-07,0.0523025691509,0.0264809541404,9.8284406662,9e-08,0.0,0.0,0.0,9e-08,0.0,0.0,0.0,9e-08
1560469596590662838,33142,1560469596586150016,base_link,-0.00221866760478,0.00146762780416,-0.600479795777,-0.799635561476,1.0,0.0,0.0,0.0,1.0,0.0,0.0,0.0,1.0,-0.000548464129679,0.000387354113627,-0.000977267278358,1.21846967915e-07,0.0,0.0,0.0,1.21846967915e-07,0.0,0.0,0.0,1.21846967915e-07,0.0669632032514,0.00218074768782,9.82498168945,9e-08,0.0,0.0,0.0,9e-08,0.0,0.0,0.0,9e-08
1560469596611658687,33143,1560469596606147968,base_link,-0.00221574111531,0.00146680487048,-0.600472262028,-0.79964115647,1.0,0.0,0.0,0.0,1.0,0.0,0.0,0.0,1.0,-0.00140395422932,-0.00100083742291,-0.00117124523968,1.21846967915e-07,0.0,0.0,0.0,1.21846967915e-07,0.0,0.0,0.0,1.21846967915e-07,0.0346894338727,0.0182006508112,9.79575061798,9e-08,0.0,0.0,0.0,9e-08,0.0,0.0,0.0,9e-08
1560469596633344560,33144,1560469596630147968,base_link,-0.00222066336507,0.00146406306158,-0.600457552778,-0.799652241091,1.0,0.0,0.0,0.0,1.0,0.0,0.0,0.0,1.0,-0.00109239679296,0.000700544798747,-0.00182307744399,1.21846967915e-07,0.0,0.0,0.0,1.21846967915e-07,0.0,0.0,0.0,1.21846967915e-07,0.0635365024209,0.00197438150644,9.78245067596,9e-08,0.0,0.0,0.0,9e-08,0.0,0.0,0.0,9e-08
1560469596652904480,33145,1560469596650147968,base_link,-0.00221815389891,0.00146746650191,-0.600447279483,-0.799659985574,1.0,0.0,0.0,0.0,1.0,0.0,0.0,0.0,1.0,0.00147568597458,-0.00206155562773,-0.000778189336415,1.21846967915e-07,0.0,0.0,0.0,1.21846967915e-07,0.0,0.0,0.0,1.21846967915e-07,0.0543880462646,0.00396664440632,9.80951023102,9e-08,0.0,0.0,0.0,9e-08,0.0,0.0,0.0,9e-08
1560469596673237621,33146,1560469596670147968,base_link,-0.00222135557767,0.00147648839703,-0.600433033848,-0.79967060658,1.0,0.0,0.0,0.0,1.0,0.0,0.0,0.0,1.0,-0.00193414068781,-0.000894148368388,-0.00106505712029,1.21846967915e-07,0.0,0.0,0.0,1.21846967915e-07,0.0,0.0,0.0,1.21846967915e-07,0.0843002349138,0.0290839448571,9.85403633118,9e-08,0.0,0.0,0.0,9e-08,0.0,0.0,0.0,9e-08
1560469596693099372,33147,1560469596690147968,base_link,-0.00221418493347,0.00146852799334,-0.600418588016,-0.799681512077,1.0,0.0,0.0,0.0,1.0,0.0,0.0,0.0,1.0,-0.000884226232301,0.00155499565881,-0.00193188688718,1.21846967915e-07,0.0,0.0,0.0,1.21846967915e-07,0.0,0.0,0.0,1.21846967915e-07,0.0422746390104,-0.000537231564521,9.76278495789,9e-08,0.0,0.0,0.0,9e-08,0.0,0.0,0.0,9e-08
1560469596710913932,33148,1560469596707145408,base_link,-0.00221705919214,0.00146885228535,-0.60041104373,-0.799687117608,1.0,0.0,0.0,0.0,1.0,0.0,0.0,0.0,1.0,0.000408172578318,6.09116395935e-05,-0.000988420564681,1.21846967915e-07,0.0,0.0,0.0,1.21846967915e-07,0.0,0.0,0.0,1.21846967915e-07,0.059213206172,0.0101307108998,9.7866153717,9e-08,0.0,0.0,0.0,9e-08,0.0,0.0,0.0,9e-08
1560469596730853390,33149,1560469596727145408,base_link,-0.00221289846678,0.00146452568909,-0.600397324931,-0.799697464659,1.0,0.0,0.0,0.0,1.0,0.0,0.0,0.0,1.0,-3.2037118217e-05,0.000486717792228,-0.00204934040084,1.21846967915e-07,0.0,0.0,0.0,1.21846967915e-07,0.0,0.0,0.0,1.21846967915e-07,0.0343810394406,-0.0295733585954,9.84643936157,9e-08,0.0,0.0,0.0,9e-08,0.0,0.0,0.0,9e-08
1560469596754604976,33150,1560469596751145408,base_link,-0.00221944299978,0.00146911187536,-0.600379391447,-0.799710930577,1.0,0.0,0.0,0.0,1.0,0.0,0.0,0.0,1.0,0.000514167535584,0.000596811645664,-0.00110117159784,1.21846967915e-07,0.0,0.0,0.0,1.21846967915e-07,0.0,0.0,0.0,1.21846967915e-07,0.0514560043812,0.0431162714958,9.84179782867,9e-08,0.0,0.0,0.0,9e-08,0.0,0.0,0.0,9e-08
1560469596770787407,33151,1560469596767145408,base_link,-0.00221646946553,0.00145807355812,-0.600369529084,-0.799718348423,1.0,0.0,0.0,0.0,1.0,0.0,0.0,0.0,1.0,0.00222458923236,0.000707966915797,-0.000272364355624,1.21846967915e-07,0.0,0.0,0.0,1.21846967915e-07,0.0,0.0,0.0,1.21846967915e-07,0.0242566838861,0.0296566970646,9.80153846741,9e-08,0.0,0.0,0.0,9e-08,0.0,0.0,0.0,9e-08
1560469596793976717,33152,1560469596791145408,base_link,-0.00222595164211,0.00146867665976,-0.600356453025,-0.799728052735,1.0,0.0,0.0,0.0,1.0,0.0,0.0,0.0,1.0,0.000186383811524,-0.00206722458825,-0.00192849256564,1.21846967915e-07,0.0,0.0,0.0,1.21846967915e-07,0.0,0.0,0.0,1.21846967915e-07,0.0439862832427,-0.00503561645746,9.78825569153,9e-08,0.0,0.0,0.0,9e-08,0.0,0.0,0.0,9e-08
1560469596813622485,33153,1560469596811143360,base_link,-0.00222067283165,0.00146968217491,-0.60034605329,-0.799735923659,1.0,0.0,0.0,0.0,1.0,0.0,0.0,0.0,1.0,-0.00259249052033,-4.76011337014e-05,-0.00233279541135,1.21846967915e-07,0.0,0.0,0.0,1.21846967915e-07,0.0,0.0,0.0,1.21846967915e-07,0.0577158406377,0.0144566856325,9.81162548065,9e-08,0.0,0.0,0.0,9e-08,0.0,0.0,0.0,9e-08
1560469596831921649,33154,1560469596827143360,base_link,-0.00222924098961,0.00147548806793,-0.600337371039,-0.799742414273,1.0,0.0,0.0,0.0,1.0,0.0,0.0,0.0,1.0,0.00190704979468,-0.00163495598827,-0.000574044766836,1.21846967915e-07,0.0,0.0,0.0,1.21846967915e-07,0.0,0.0,0.0,1.21846967915e-07,0.0432087182999,0.0258346833289,9.82744884491,9e-08,0.0,0.0,0.0,9e-08,0.0,0.0,0.0,9e-08
1560469596851821944,33155,1560469596847143360,base_link,-0.00223126494383,0.00147632977013,-0.600328857376,-0.799748904888,1.0,0.0,0.0,0.0,1.0,0.0,0.0,0.0,1.0,-0.000457243237179,0.0035713231191,-0.00195122754667,1.21846967915e-07,0.0,0.0,0.0,1.21846967915e-07,0.0,0.0,0.0,1.21846967915e-07,0.0818171724677,0.0388130135834,9.83266353607,9e-08,0.0,0.0,0.0,9e-08,0.0,0.0,0.0,9e-08
1560469596870602289,33156,1560469596867143360,base_link,-0.00222724201891,0.00147369941988,-0.600321102356,-0.799754721153,1.0,0.0,0.0,0.0,1.0,0.0,0.0,0.0,1.0,0.00145913520828,-0.000469732098281,-0.00185122899711,1.21846967915e-07,0.0,0.0,0.0,1.21846967915e-07,0.0,0.0,0.0,1.21846967915e-07,0.0483404546976,-0.0170121341944,9.79871177673,9e-08,0.0,0.0,0.0,9e-08,0.0,0.0,0.0,9e-08
1560469596893165534,33157,1560469596891143360,base_link,-0.00223620736152,0.00146342917133,-0.600303864295,-0.799767491648,1.0,0.0,0.0,0.0,1.0,0.0,0.0,0.0,1.0,0.00136459898204,0.00251386174932,-0.000901099061593,1.21846967915e-07,0.0,0.0,0.0,1.21846967915e-07,0.0,0.0,0.0,1.21846967915e-07,0.0591060966253,-0.00641013681888,9.82090854645,9e-08,0.0,0.0,0.0,9e-08,0.0,0.0,0.0,9e-08
1560469596914265379,33158,1560469596911140544,base_link,-0.0022317202862,0.00146355602346,-0.600293422413,-0.799775489013,1.0,0.0,0.0,0.0,1.0,0.0,0.0,0.0,1.0,-1.48756953422e-06,-0.000672515074257,0.000406480277888,1.21846967915e-07,0.0,0.0,0.0,1.21846967915e-07,0.0,0.0,0.0,1.21846967915e-07,0.0227272510529,-0.0328730717301,9.77050209045,9e-08,0.0,0.0,0.0,9e-08,0.0,0.0,0.0,9e-08
1560469596930965661,33159,1560469596927140544,base_link,-0.00224027597297,0.00146382055256,-0.60028199008,-0.799783971066,1.0,0.0,0.0,0.0,1.0,0.0,0.0,0.0,1.0,0.00228562369011,-0.000691669294611,-0.00366793852299,1.21846967915e-07,0.0,0.0,0.0,1.21846967915e-07,0.0,0.0,0.0,1.21846967915e-07,0.0551076754928,-0.0173492208123,9.84120368958,9e-08,0.0,0.0,0.0,9e-08,0.0,0.0,0.0,9e-08
1560469596952291403,33160,1560469596947140544,base_link,-0.002230849855,0.00146663587149,-0.600270568284,-0.799792526876,1.0,0.0,0.0,0.0,1.0,0.0,0.0,0.0,1.0,-0.000128380779643,0.00123333826195,-0.000885201443452,1.21846967915e-07,0.0,0.0,0.0,1.21846967915e-07,0.0,0.0,0.0,1.21846967915e-07,0.0338355600834,-0.00445248931646,9.78293228149,9e-08,0.0,0.0,0.0,9e-08,0.0,0.0,0.0,9e-08
1560469596971064882,33161,1560469596967140544,base_link,-0.00224166422595,0.00147283071736,-0.600267122779,-0.799795129444,1.0,0.0,0.0,0.0,1.0,0.0,0.0,0.0,1.0,0.00210997532122,-0.00133148115128,-0.00132171355654,1.21846967915e-07,0.0,0.0,0.0,1.21846967915e-07,0.0,0.0,0.0,1.21846967915e-07,0.0601515173912,0.0140543729067,9.85194301605,9e-08,0.0,0.0,0.0,9e-08,0.0,0.0,0.0,9e-08
1560469596994392231,33162,1560469596991140544,base_link,-0.00222924127772,0.00147088323661,-0.600256670361,-0.799802968758,1.0,0.0,0.0,0.0,1.0,0.0,0.0,0.0,1.0,-0.00023278297158,0.00103101297282,-0.00130200665444,1.21846967915e-07,0.0,0.0,0.0,1.21846967915e-07,0.0,0.0,0.0,1.21846967915e-07,0.0338157936931,0.0533433333039,9.74622154236,9e-08,0.0,0.0,0.0,9e-08,0.0,0.0,0.0,9e-08
1560469597010774979,33163,1560469597007138752,base_link,-0.0022272100795,0.00147826840168,-0.600252350309,-0.799806277285,1.0,0.0,0.0,0.0,1.0,0.0,0.0,0.0,1.0,0.000195188156795,-0.000465660676127,-0.000768054800574,1.21846967915e-07,0.0,0.0,0.0,1.21846967915e-07,0.0,0.0,0.0,1.21846967915e-07,0.0611373111606,0.0163451842964,9.82853889465,9e-08,0.0,0.0,0.0,9e-08,0.0,0.0,0.0,9e-08
1560469597034073859,33164,1560469597031138752,base_link,-0.00223047740692,0.00148531914961,-0.60023715637,-0.799817593714,1.0,0.0,0.0,0.0,1.0,0.0,0.0,0.0,1.0,0.000400679447921,0.000382151978556,-0.00130674650427,1.21846967915e-07,0.0,0.0,0.0,1.21846967915e-07,0.0,0.0,0.0,1.21846967915e-07,0.0781589001417,-0.0165926814079,9.81635093689,9e-08,0.0,0.0,0.0,9e-08,0.0,0.0,0.0,9e-08
1560469597050745504,33165,1560469597047138752,base_link,-0.00223791200398,0.00149096357575,-0.600226545901,-0.799825591079,1.0,0.0,0.0,0.0,1.0,0.0,0.0,0.0,1.0,0.000508525059558,-0.00163782923482,-0.00119112094399,1.21846967915e-07,0.0,0.0,0.0,1.21846967915e-07,0.0,0.0,0.0,1.21846967915e-07,0.0684752836823,-0.0108481422067,9.80821418762,9e-08,0.0,0.0,0.0,9e-08,0.0,0.0,0.0,9e-08
1560469597074084469,33166,1560469597071138752,base_link,-0.0022379104811,0.0014941531126,-0.600206673662,-0.79984048999,1.0,0.0,0.0,0.0,1.0,0.0,0.0,0.0,1.0,-0.000343564373907,0.000914545962587,-0.00140863400884,1.21846967915e-07,0.0,0.0,0.0,1.21846967915e-07,0.0,0.0,0.0,1.21846967915e-07,0.0203521624207,-0.00118432939052,9.84006404877,9e-08,0.0,0.0,0.0,9e-08,0.0,0.0,0.0,9e-08
1560469597093778508,33167,1560469597091138752,base_link,-0.00224571452163,0.00149390323612,-0.600191880118,-0.799851490317,1.0,0.0,0.0,0.0,1.0,0.0,0.0,0.0,1.0,0.000390192493796,-0.000152790220454,-0.00204918091185,1.21846967915e-07,0.0,0.0,0.0,1.21846967915e-07,0.0,0.0,0.0,1.21846967915e-07,0.0443378835917,0.0073224157095,9.81840515137,9e-08,0.0,0.0,0.0,9e-08,0.0,0.0,0.0,9e-08
1560469597114403202,33168,1560469597111135168,base_link,-0.00224018390022,0.00149692216878,-0.600186327271,-0.799855694465,1.0,0.0,0.0,0.0,1.0,0.0,0.0,0.0,1.0,5.18912565894e-06,-0.000457390764495,0.000722068245523,1.21846967915e-07,0.0,0.0,0.0,1.21846967915e-07,0.0,0.0,0.0,1.21846967915e-07,0.0301681682467,0.00481110066176,9.79683971405,9e-08,0.0,0.0,0.0,9e-08,0.0,0.0,0.0,9e-08
1560469597130307219,33169,1560469597127135168,base_link,-0.0022454395793,0.00149352325593,-0.600182133659,-0.799858792259,1.0,0.0,0.0,0.0,1.0,0.0,0.0,0.0,1.0,-0.000349871232174,-0.00109900301322,-0.0018241670914,1.21846967915e-07,0.0,0.0,0.0,1.21846967915e-07,0.0,0.0,0.0,1.21846967915e-07,0.0619694888592,0.0149670466781,9.78568935394,9e-08,0.0,0.0,0.0,9e-08,0.0,0.0,0.0,9e-08
1560469597154537618,33170,1560469597151135168,base_link,-0.00224510973082,0.00150011388705,-0.600169141893,-0.799868496571,1.0,0.0,0.0,0.0,1.0,0.0,0.0,0.0,1.0,-2.95523786917e-05,0.00016900736955,-0.00162023620214,1.21846967915e-07,0.0,0.0,0.0,1.21846967915e-07,0.0,0.0,0.0,1.21846967915e-07,0.0531376674771,0.00810544192791,9.79789161682,9e-08,0.0,0.0,0.0,9e-08,0.0,0.0,0.0,9e-08
1560469597170407538,33171,1560469597167135168,base_link,-0.00224860771345,0.00149855301309,-0.600161871562,-0.799873996734,1.0,0.0,0.0,0.0,1.0,0.0,0.0,0.0,1.0,-0.000348629895598,-0.000149864135892,-0.00140142603777,1.21846967915e-07,0.0,0.0,0.0,1.21846967915e-07,0.0,0.0,0.0,1.21846967915e-07,0.0626832842827,0.00634793192148,9.82829380035,9e-08,0.0,0.0,0.0,9e-08,0.0,0.0,0.0,9e-08
1560469597190726721,33172,1560469597188135168,base_link,-0.00225282029919,0.00150503914143,-0.600150871234,-0.799882299663,1.0,0.0,0.0,0.0,1.0,0.0,0.0,0.0,1.0,-0.000764146563597,-0.00216908170842,-0.000746426929254,1.21846967915e-07,0.0,0.0,0.0,1.21846967915e-07,0.0,0.0,0.0,1.21846967915e-07,0.0671958401799,0.0120193250477,9.81808757782,9e-08,0.0,0.0,0.0,9e-08,0.0,0.0,0.0,9e-08
1560469597211519578,33173,1560469597208132608,base_link,-0.00225302358365,0.00150519344664,-0.600144169886,-0.799887315138,1.0,0.0,0.0,0.0,1.0,0.0,0.0,0.0,1.0,-0.000985869555734,-0.00217390689068,-0.00159877806436,1.21846967915e-07,0.0,0.0,0.0,1.21846967915e-07,0.0,0.0,0.0,1.21846967915e-07,0.0357147827744,0.0300829596818,9.81082725525,9e-08,0.0,0.0,0.0,9e-08,0.0,0.0,0.0,9e-08
1560469597230563922,33174,1560469597228132608,base_link,-0.0022542718136,0.00150421126866,-0.600139186021,-0.799891118892,1.0,0.0,0.0,0.0,1.0,0.0,0.0,0.0,1.0,-0.000335547054419,0.000812310434412,-0.000553653924726,1.21846967915e-07,0.0,0.0,0.0,1.21846967915e-07,0.0,0.0,0.0,1.21846967915e-07,0.0494175702333,0.0196688920259,9.84138774872,9e-08,0.0,0.0,0.0,9e-08,0.0,0.0,0.0,9e-08
1560469597252200682,33175,1560469597248132608,base_link,-0.00225276300582,0.00150007042312,-0.600128838969,-0.799898768545,1.0,0.0,0.0,0.0,1.0,0.0,0.0,0.0,1.0,-0.00121024402324,-4.28556959378e-05,-0.00192278320901,1.21846967915e-07,0.0,0.0,0.0,1.21846967915e-07,0.0,0.0,0.0,1.21846967915e-07,0.0469185337424,-0.0076859742403,9.79509067535,9e-08,0.0,0.0,0.0,9e-08,0.0,0.0,0.0,9e-08
1560469597270548152,33176,1560469597268132608,base_link,-0.00225016689989,0.00150816735132,-0.600120272622,-0.799905227549,1.0,0.0,0.0,0.0,1.0,0.0,0.0,0.0,1.0,-0.00119888712652,0.000381711899536,-0.0013915420277,1.21846967915e-07,0.0,0.0,0.0,1.21846967915e-07,0.0,0.0,0.0,1.21846967915e-07,0.0506332665682,0.0399087667465,9.79032516479,9e-08,0.0,0.0,0.0,9e-08,0.0,0.0,0.0,9e-08
1560469597290507659,33177,1560469597288132608,base_link,-0.0022504378498,0.00150429021169,-0.600106785631,-0.799915342793,1.0,0.0,0.0,0.0,1.0,0.0,0.0,0.0,1.0,0.00039825469139,0.00016938126646,-0.00130545347929,1.21846967915e-07,0.0,0.0,0.0,1.21846967915e-07,0.0,0.0,0.0,1.21846967915e-07,0.0433254316449,0.016083765775,9.7759141922,9e-08,0.0,0.0,0.0,9e-08,0.0,0.0,0.0,9e-08
1560469597310887848,33178,1560469597308128768,base_link,-0.00224982964279,0.00151196723545,-0.600097123466,-0.799922560441,1.0,0.0,0.0,0.0,1.0,0.0,0.0,0.0,1.0,-0.00171744520776,-0.000249492790317,-0.0003194588935,1.21846967915e-07,0.0,0.0,0.0,1.21846967915e-07,0.0,0.0,0.0,1.21846967915e-07,0.038536503911,0.0297590233386,9.84763240814,9e-08,0.0,0.0,0.0,9e-08,0.0,0.0,0.0,9e-08
1560469597331357524,33179,1560469597328128768,base_link,-0.00224317570908,0.00151004494403,-0.600092508386,-0.799926079702,1.0,0.0,0.0,0.0,1.0,0.0,0.0,0.0,1.0,-0.000557263148949,0.000915985787287,-0.000973091693595,1.21846967915e-07,0.0,0.0,0.0,1.21846967915e-07,0.0,0.0,0.0,1.21846967915e-07,0.0456130281091,-0.0217215418816,9.84176826477,9e-08,0.0,0.0,0.0,9e-08,0.0,0.0,0.0,9e-08
1560469597350694293,33180,1560469597348128768,base_link,-0.00225379453347,0.00151249888666,-0.600081529132,-0.799934277264,1.0,0.0,0.0,0.0,1.0,0.0,0.0,0.0,1.0,-0.000123034507851,-0.000677828502376,-0.000443247379735,1.21846967915e-07,0.0,0.0,0.0,1.21846967915e-07,0.0,0.0,0.0,1.21846967915e-07,0.0733667910099,0.0210165530443,9.81477165222,9e-08,0.0,0.0,0.0,9e-08,0.0,0.0,0.0,9e-08
1560469597370956048,33181,1560469597368128768,base_link,-0.00225214059894,0.00151031910434,-0.600072256825,-0.799941189348,1.0,0.0,0.0,0.0,1.0,0.0,0.0,0.0,1.0,0.00156803044956,0.00165927910712,-0.00132660393137,1.21846967915e-07,0.0,0.0,0.0,1.21846967915e-07,0.0,0.0,0.0,1.21846967915e-07,0.0263385102153,0.000143967568876,9.83464336395,9e-08,0.0,0.0,0.0,9e-08,0.0,0.0,0.0,9e-08
1560469597390686532,33182,1560469597388128768,base_link,-0.00225576823252,0.00151424991535,-0.600068052677,-0.799944381971,1.0,0.0,0.0,0.0,1.0,0.0,0.0,0.0,1.0,0.000306658766931,-0.00173931627069,-0.000228373915888,1.21846967915e-07,0.0,0.0,0.0,1.21846967915e-07,0.0,0.0,0.0,1.21846967915e-07,0.0433346554637,-0.0275249183178,9.82206344604,9e-08,0.0,0.0,0.0,9e-08,0.0,0.0,0.0,9e-08
1560469597411569762,33183,1560469597408126208,base_link,-0.00224872205324,0.0015142579002,-0.600065049714,-0.799946626291,1.0,0.0,0.0,0.0,1.0,0.0,0.0,0.0,1.0,-0.000655850570183,0.000918425503187,-0.000444957870059,1.21846967915e-07,0.0,0.0,0.0,1.21846967915e-07,0.0,0.0,0.0,1.21846967915e-07,0.0495427176356,-0.00452515482902,9.85893249512,9e-08,0.0,0.0,0.0,9e-08,0.0,0.0,0.0,9e-08
1560469597430643755,33184,1560469597428126208,base_link,-0.00224434376124,0.00151731581046,-0.600055924921,-0.799953475154,1.0,0.0,0.0,0.0,1.0,0.0,0.0,0.0,1.0,0.00105059880298,-0.000462892552605,-3.3276504837e-05,1.21846967915e-07,0.0,0.0,0.0,1.21846967915e-07,0.0,0.0,0.0,1.21846967915e-07,0.0363722741604,0.0105037838221,9.80237388611,9e-08,0.0,0.0,0.0,9e-08,0.0,0.0,0.0,9e-08
1560469597451904892,33185,1560469597448126208,base_link,-0.00224192130527,0.00152372542416,-0.600043618042,-0.799962747461,1.0,0.0,0.0,0.0,1.0,0.0,0.0,0.0,1.0,-0.000135068039526,-4.40083131252e-05,-0.0012975698337,1.21846967915e-07,0.0,0.0,0.0,1.21846967915e-07,0.0,0.0,0.0,1.21846967915e-07,0.0380971208215,-0.017038166523,9.82204818726,9e-08,0.0,0.0,0.0,9e-08,0.0,0.0,0.0,9e-08
1560469597470522722,33186,1560469597468126208,base_link,-0.00224165694081,0.00152050839308,-0.600038433979,-0.799966582824,1.0,0.0,0.0,0.0,1.0,0.0,0.0,0.0,1.0,0.00211040629074,0.000598682789132,-0.000478175352328,1.21846967915e-07,0.0,0.0,0.0,1.21846967915e-07,0.0,0.0,0.0,1.21846967915e-07,0.0798411071301,0.0182323567569,9.84394931793,9e-08,0.0,0.0,0.0,9e-08,0.0,0.0,0.0,9e-08
1560469597491719682,33187,1560469597488126208,base_link,-0.00224689381021,0.00152014672867,-0.600025916365,-0.799975981571,1.0,0.0,0.0,0.0,1.0,0.0,0.0,0.0,1.0,0.00103265303187,-0.000152685504872,-0.00184159353375,1.21846967915e-07,0.0,0.0,0.0,1.21846967915e-07,0.0,0.0,0.0,1.21846967915e-07,0.0728697180748,0.0152216888964,9.83080005646,9e-08,0.0,0.0,0.0,9e-08,0.0,0.0,0.0,9e-08
1560469597511061894,33188,1560469597508123136,base_link,-0.00224614422192,0.00151999180607,-0.600013778073,-0.799985169584,1.0,0.0,0.0,0.0,1.0,0.0,0.0,0.0,1.0,0.00221640407108,-0.000259567750618,-0.00153464102186,1.21846967915e-07,0.0,0.0,0.0,1.21846967915e-07,0.0,0.0,0.0,1.21846967915e-07,0.0541813671589,0.0379583798349,9.80929756165,9e-08,0.0,0.0,0.0,9e-08,0.0,0.0,0.0,9e-08
1560469597531612577,33189,1560469597528123136,base_link,-0.00224675061794,0.00152868142433,-0.600001407973,-0.799994420817,1.0,0.0,0.0,0.0,1.0,0.0,0.0,0.0,1.0,0.00104517152067,-4.0195951442e-05,-0.00067262124503,1.21846967915e-07,0.0,0.0,0.0,1.21846967915e-07,0.0,0.0,0.0,1.21846967915e-07,0.0433785766363,0.00309035181999,9.86118221283,9e-08,0.0,0.0,0.0,9e-08,0.0,0.0,0.0,9e-08
1560469597551028504,33190,1560469597548123136,base_link,-0.002241044906,0.00152742006464,-0.599997804417,-0.799997097142,1.0,0.0,0.0,0.0,1.0,0.0,0.0,0.0,1.0,0.0011352840811,0.000700539676473,-0.00163534819148,1.21846967915e-07,0.0,0.0,0.0,1.21846967915e-07,0.0,0.0,0.0,1.21846967915e-07,0.0458343923092,-0.000548012554644,9.79311847687,9e-08,0.0,0.0,0.0,9e-08,0.0,0.0,0.0,9e-08
1560469597571787843,33191,1560469597568123136,base_link,-0.00224219134967,0.0015269058237,-0.599988121179,-0.800004420157,1.0,0.0,0.0,0.0,1.0,0.0,0.0,0.0,1.0,0.00146523467265,-0.00131893134676,-0.000886161869857,1.21846967915e-07,0.0,0.0,0.0,1.21846967915e-07,0.0,0.0,0.0,1.21846967915e-07,0.022904843092,0.0193918347359,9.78810405731,9e-08,0.0,0.0,0.0,9e-08,0.0,0.0,0.0,9e-08
1560469597590983155,33192,1560469597588123136,base_link,-0.00223934396786,0.00153043776253,-0.599985908469,-0.800006042811,1.0,0.0,0.0,0.0,1.0,0.0,0.0,0.0,1.0,0.000399335316615,0.000915330310818,-0.000989298336208,1.21846967915e-07,0.0,0.0,0.0,1.21846967915e-07,0.0,0.0,0.0,1.21846967915e-07,0.0915794298053,0.0077063292265,9.82933521271,9e-08,0.0,0.0,0.0,9e-08,0.0,0.0,0.0,9e-08
1560469597611866321,33193,1560469597608121344,base_link,-0.00223863841973,0.00153152263229,-0.599983990788,-0.800007539024,1.0,0.0,0.0,0.0,1.0,0.0,0.0,0.0,1.0,0.000931178918108,-0.000148617982632,-0.000992878689431,1.21846967915e-07,0.0,0.0,0.0,1.21846967915e-07,0.0,0.0,0.0,1.21846967915e-07,0.0737300217152,-0.008714415133,9.77755260468,9e-08,0.0,0.0,0.0,9e-08,0.0,0.0,0.0,9e-08
1560469597630728414,33194,1560469597628121344,base_link,-0.00223341044068,0.00153262351292,-0.599969249927,-0.800018570961,1.0,0.0,0.0,0.0,1.0,0.0,0.0,0.0,1.0,-0.00110975001007,0.00186651211698,-0.00225066998973,1.21846967915e-07,0.0,0.0,0.0,1.21846967915e-07,0.0,0.0,0.0,1.21846967915e-07,0.0326477661729,0.00329817086458,9.8030796051,9e-08,0.0,0.0,0.0,9e-08,0.0,0.0,0.0,9e-08
1560469597651663895,33195,1560469597648121344,base_link,-0.00223363932606,0.00153177098589,-0.59995289695,-0.800030709254,1.0,0.0,0.0,0.0,1.0,0.0,0.0,0.0,1.0,5.85396483075e-05,-0.000370301713701,-0.00246713776141,1.21846967915e-07,0.0,0.0,0.0,1.21846967915e-07,0.0,0.0,0.0,1.21846967915e-07,0.0619418695569,-0.0100803226233,9.78576278687,9e-08,0.0,0.0,0.0,9e-08,0.0,0.0,0.0,9e-08
1560469597670615265,33196,1560469597668121344,base_link,-0.00224607853211,0.00153927744662,-0.599943972355,-0.800037442213,1.0,0.0,0.0,0.0,1.0,0.0,0.0,0.0,1.0,0.000279499625321,-0.000366594933439,-0.00193918147124,1.21846967915e-07,0.0,0.0,0.0,1.21846967915e-07,0.0,0.0,0.0,1.21846967915e-07,0.0622846111655,0.0421758703887,9.85049915314,9e-08,0.0,0.0,0.0,9e-08,0.0,0.0,0.0,9e-08
1560469597692106745,33197,1560469597689121344,base_link,-0.00223856013526,0.00153177641888,-0.599930685561,-0.800047441553,1.0,0.0,0.0,0.0,1.0,0.0,0.0,0.0,1.0,-0.000248256663326,0.000380426354241,-0.00151032744907,1.21846967915e-07,0.0,0.0,0.0,1.21846967915e-07,0.0,0.0,0.0,1.21846967915e-07,0.0478506237268,-0.0158974826336,9.76579475403,9e-08,0.0,0.0,0.0,9e-08,0.0,0.0,0.0,9e-08
1560469597711195041,33198,1560469597709119552,base_link,-0.0022399983553,0.00153534083219,-0.599921982237,-0.800053953241,1.0,0.0,0.0,0.0,1.0,0.0,0.0,0.0,1.0,-0.00139541749377,-0.000466330529889,-3.39688267559e-06,1.21846967915e-07,0.0,0.0,0.0,1.21846967915e-07,0.0,0.0,0.0,1.21846967915e-07,0.0861272513866,0.0205027759075,9.82037448883,9e-08,0.0,0.0,0.0,9e-08,0.0,0.0,0.0,9e-08
1560469597731863720,33199,1560469597729119552,base_link,-0.00223092727514,0.0015358788219,-0.599911129423,-0.800062108656,1.0,0.0,0.0,0.0,1.0,0.0,0.0,0.0,1.0,-0.000894920784049,5.45288130525e-05,-0.00235386099666,1.21846967915e-07,0.0,0.0,0.0,1.21846967915e-07,0.0,0.0,0.0,1.21846967915e-07,0.029232814908,0.0023340061307,9.80181026459,9e-08,0.0,0.0,0.0,9e-08,0.0,0.0,0.0,9e-08
1560469597751545281,33200,1560469597749119552,base_link,-0.00223648938321,0.0015443002479,-0.599897368477,-0.80007241356,1.0,0.0,0.0,0.0,1.0,0.0,0.0,0.0,1.0,-0.000353981449734,-0.00121757644229,-0.00181713455822,1.21846967915e-07,0.0,0.0,0.0,1.21846967915e-07,0.0,0.0,0.0,1.21846967915e-07,0.0701008290052,0.0096100717783,9.82399272919,9e-08,0.0,0.0,0.0,9e-08,0.0,0.0,0.0,9e-08
1560469597771697313,33201,1560469597769119552,base_link,-0.00222637383087,0.00154454355952,-0.599883533774,-0.800082792222,1.0,0.0,0.0,0.0,1.0,0.0,0.0,0.0,1.0,-0.00162561016623,0.000911809504032,-0.00159470154904,1.21846967915e-07,0.0,0.0,0.0,1.21846967915e-07,0.0,0.0,0.0,1.21846967915e-07,0.0292015746236,0.0118582770228,9.76371765137,9e-08,0.0,0.0,0.0,9e-08,0.0,0.0,0.0,9e-08
1560469597791859704,33202,1560469597789119552,base_link,-0.00223151749565,0.00153997941391,-0.599871679973,-0.800091695744,1.0,0.0,0.0,0.0,1.0,0.0,0.0,0.0,1.0,0.000709689396899,-0.00121270969976,-0.00151380267926,1.21846967915e-07,0.0,0.0,0.0,1.21846967915e-07,0.0,0.0,0.0,1.21846967915e-07,0.0555456951261,-0.00760062783956,9.8042755127,9e-08,0.0,0.0,0.0,9e-08,0.0,0.0,0.0,9e-08
1560469597811903265,33203,1560469597809119040,base_link,-0.00222706065164,0.00153813530407,-0.59986233391,-0.800098681584,1.0,0.0,0.0,0.0,1.0,0.0,0.0,0.0,1.0,-0.000142286487971,0.000914434087463,-0.00140624470077,1.21846967915e-07,0.0,0.0,0.0,1.21846967915e-07,0.0,0.0,0.0,1.21846967915e-07,0.0429767146707,0.00944390147925,9.79119777679,9e-08,0.0,0.0,0.0,9e-08,0.0,0.0,0.0,9e-08
1560469597831830974,33204,1560469597829119040,base_link,-0.00223291760243,0.00153597871487,-0.599848351693,-0.800109123465,1.0,0.0,0.0,0.0,1.0,0.0,0.0,0.0,1.0,0.00145479675848,-0.00153232109733,-0.00163404387422,1.21846967915e-07,0.0,0.0,0.0,1.21846967915e-07,0.0,0.0,0.0,1.21846967915e-07,0.0218031406403,0.0272647403181,9.84391689301,9e-08,0.0,0.0,0.0,9e-08,0.0,0.0,0.0,9e-08
1560469597852739283,33205,1560469597849119040,base_link,-0.00223029474314,0.0015359143833,-0.599837298682,-0.800117479078,1.0,0.0,0.0,0.0,1.0,0.0,0.0,0.0,1.0,0.00081647594925,0.00166032242123,-0.00174870004412,1.21846967915e-07,0.0,0.0,0.0,1.21846967915e-07,0.0,0.0,0.0,1.21846967915e-07,0.0698807537556,0.0216650217772,9.78232479095,9e-08,0.0,0.0,0.0,9e-08,0.0,0.0,0.0,9e-08
1560469597871727238,33206,1560469597869119040,base_link,-0.002233966705,0.00154125295667,-0.599820081694,-0.800130312794,1.0,0.0,0.0,0.0,1.0,0.0,0.0,0.0,1.0,0.00123527192045,-0.00185883231461,-0.00204997765832,1.21846967915e-07,0.0,0.0,0.0,1.21846967915e-07,0.0,0.0,0.0,1.21846967915e-07,0.0269605964422,0.0346889011562,9.81349754333,9e-08,0.0,0.0,0.0,9e-08,0.0,0.0,0.0,9e-08
1560469597891716873,33207,1560469597889119040,base_link,-0.00223185849823,0.00154265388663,-0.599810335235,-0.800137614735,1.0,0.0,0.0,0.0,1.0,0.0,0.0,0.0,1.0,7.5661984738e-05,0.000274556310615,-0.00108682585414,1.21846967915e-07,0.0,0.0,0.0,1.21846967915e-07,0.0,0.0,0.0,1.21846967915e-07,0.0462538152933,0.0507455319166,9.79626846313,9e-08,0.0,0.0,0.0,9e-08,0.0,0.0,0.0,9e-08
1560469597911347732,33208,1560469597909115712,base_link,-0.00223195863815,0.00153914051053,-0.599802622362,-0.800143388853,1.0,0.0,0.0,0.0,1.0,0.0,0.0,0.0,1.0,0.000925024040043,0.00038741377648,-0.00109843781684,1.21846967915e-07,0.0,0.0,0.0,1.21846967915e-07,0.0,0.0,0.0,1.21846967915e-07,0.0221354663372,0.0151728950441,9.82067108154,9e-08,0.0,0.0,0.0,9e-08,0.0,0.0,0.0,9e-08
1560469597931967529,33209,1560469597929115712,base_link,-0.00224060450436,0.00153992335531,-0.599791063589,-0.800152165935,1.0,0.0,0.0,0.0,1.0,0.0,0.0,0.0,1.0,0.00177862832788,0.00038045697147,-0.0010037291795,1.21846967915e-07,0.0,0.0,0.0,1.21846967915e-07,0.0,0.0,0.0,1.21846967915e-07,0.0489871352911,-0.00639680027962,9.79180908203,9e-08,0.0,0.0,0.0,9e-08,0.0,0.0,0.0,9e-08
1560469597951012916,33210,1560469597949115712,base_link,-0.00222924008411,0.00154110009203,-0.599775458718,-0.800163809001,1.0,0.0,0.0,0.0,1.0,0.0,0.0,0.0,1.0,0.000494771578815,-0.00068054383155,-0.00151207437739,1.21846967915e-07,0.0,0.0,0.0,1.21846967915e-07,0.0,0.0,0.0,1.21846967915e-07,0.0413230732083,0.0188167393208,9.78200817108,9e-08,0.0,0.0,0.0,9e-08,0.0,0.0,0.0,9e-08
1560469597972019436,33211,1560469597969115712,base_link,-0.00223882771012,0.00153661750304,-0.599770211435,-0.800167623291,1.0,0.0,0.0,0.0,1.0,0.0,0.0,0.0,1.0,0.000931888818741,0.000272803474218,-0.00109809497371,1.21846967915e-07,0.0,0.0,0.0,1.21846967915e-07,0.0,0.0,0.0,1.21846967915e-07,0.0363153815269,0.0166569985449,9.83528804779,9e-08,0.0,0.0,0.0,9e-08,0.0,0.0,0.0,9e-08
1560469597991764073,33212,1560469597989115712,base_link,-0.00223130709068,0.00153757012883,-0.599757725432,-0.800177074722,1.0,0.0,0.0,0.0,1.0,0.0,0.0,0.0,1.0,0.000699645257555,0.0012277266942,-0.00205773580819,1.21846967915e-07,0.0,0.0,0.0,1.21846967915e-07,0.0,0.0,0.0,1.21846967915e-07,0.0394217222929,-0.00889916718006,9.85655403137,9e-08,0.0,0.0,0.0,9e-08,0.0,0.0,0.0,9e-08
1560469598011625328,33213,1560469598009113664,base_link,-0.00223564698131,0.0015397027429,-0.599747041205,-0.800185145843,1.0,0.0,0.0,0.0,1.0,0.0,0.0,0.0,1.0,0.00228870147839,-0.000262696150457,-0.00249840854667,1.21846967915e-07,0.0,0.0,0.0,1.21846967915e-07,0.0,0.0,0.0,1.21846967915e-07,0.0422635748982,-0.000720120966433,9.78019237518,9e-08,0.0,0.0,0.0,9e-08,0.0,0.0,0.0,9e-08
1560469598031414888,33214,1560469598029113664,base_link,-0.00223670892549,0.00154137013643,-0.599736978645,-0.800192595299,1.0,0.0,0.0,0.0,1.0,0.0,0.0,0.0,1.0,0.000407673243899,0.00123797939159,-3.26844165102e-05,1.21846967915e-07,0.0,0.0,0.0,1.21846967915e-07,0.0,0.0,0.0,1.21846967915e-07,0.0561137720942,0.0128021240234,9.815741539,9e-08,0.0,0.0,0.0,9e-08,0.0,0.0,0.0,9e-08
1560469598051817414,33215,1560469598049113664,base_link,-0.00224067577123,0.00155421198072,-0.599724376738,-0.80020207834,1.0,0.0,0.0,0.0,1.0,0.0,0.0,0.0,1.0,0.000822240835987,0.000486800330691,-0.000781935639679,1.21846967915e-07,0.0,0.0,0.0,1.21846967915e-07,0.0,0.0,0.0,1.21846967915e-07,0.0328081473708,0.00966857373715,9.85252189636,9e-08,0.0,0.0,0.0,9e-08,0.0,0.0,0.0,9e-08
1560469598071765318,33216,1560469598069113664,base_link,-0.00223858797934,0.00155773441181,-0.599716885135,-0.800207715481,1.0,0.0,0.0,0.0,1.0,0.0,0.0,0.0,1.0,-0.000155829358846,0.000481651251903,-0.0023619432468,1.21846967915e-07,0.0,0.0,0.0,1.21846967915e-07,0.0,0.0,0.0,1.21846967915e-07,0.0315003246069,0.00620372593403,9.82883071899,9e-08,0.0,0.0,0.0,9e-08,0.0,0.0,0.0,9e-08
1560469598092406776,33217,1560469598089113664,base_link,-0.00223083077779,0.00156365657909,-0.599702650037,-0.800218241656,1.0,0.0,0.0,0.0,1.0,0.0,0.0,0.0,1.0,0.000387815351132,-0.000472054613056,-0.0013001357438,1.21846967915e-07,0.0,0.0,0.0,1.21846967915e-07,0.0,0.0,0.0,1.21846967915e-07,0.0281579047441,0.00313125550747,9.79241085052,9e-08,0.0,0.0,0.0,9e-08,0.0,0.0,0.0,9e-08
1560469598111926452,33218,1560469598109111872,base_link,-0.00223735466953,0.00157161934943,-0.599689205193,-0.800228399047,1.0,0.0,0.0,0.0,1.0,0.0,0.0,0.0,1.0,0.000585886999033,0.00016142622917,-0.00258294609375,1.21846967915e-07,0.0,0.0,0.0,1.21846967915e-07,0.0,0.0,0.0,1.21846967915e-07,0.0577715411782,-0.00185313820839,9.83355903625,9e-08,0.0,0.0,0.0,9e-08,0.0,0.0,0.0,9e-08
1560469598131673925,33219,1560469598129111872,base_link,-0.0022251518398,0.00156408033191,-0.599680954947,-0.800234626244,1.0,0.0,0.0,0.0,1.0,0.0,0.0,0.0,1.0,7.08201987436e-05,0.000694371818099,-0.00151199311949,1.21846967915e-07,0.0,0.0,0.0,1.21846967915e-07,0.0,0.0,0.0,1.21846967915e-07,0.0319734886289,-0.0459875240922,9.75787448883,9e-08,0.0,0.0,0.0,9e-08,0.0,0.0,0.0,9e-08
1560469598151468376,33220,1560469598149111872,base_link,-0.00223612983849,0.00157317378201,-0.599677825543,-0.800236828416,1.0,0.0,0.0,0.0,1.0,0.0,0.0,0.0,1.0,0.000500480469782,-0.00111014791764,-0.000979368109256,1.21846967915e-07,0.0,0.0,0.0,1.21846967915e-07,0.0,0.0,0.0,1.21846967915e-07,0.0479364022613,0.0260314941406,9.81019592285,9e-08,0.0,0.0,0.0,9e-08,0.0,0.0,0.0,9e-08
1560469598170665102,33221,1560469598165111872,base_link,-0.00222971691149,0.00157391466516,-0.599669427784,-0.800243118834,1.0,0.0,0.0,0.0,1.0,0.0,0.0,0.0,1.0,-0.00013635007781,0.000696411647368,-0.000979522475973,1.21846967915e-07,0.0,0.0,0.0,1.21846967915e-07,0.0,0.0,0.0,1.21846967915e-07,0.0557127147913,-0.00182158499956,9.78740692139,9e-08,0.0,0.0,0.0,9e-08,0.0,0.0,0.0,9e-08
1560469598192210697,33222,1560469598189111872,base_link,-0.00222972158304,0.00158618394615,-0.599664138354,-0.800247228151,1.0,0.0,0.0,0.0,1.0,0.0,0.0,0.0,1.0,-3.22257255903e-05,-0.000363340310287,-0.000975790433586,1.21846967915e-07,0.0,0.0,0.0,1.21846967915e-07,0.0,0.0,0.0,1.21846967915e-07,0.0590198412538,-0.019822448492,9.85455513,9e-08,0.0,0.0,0.0,9e-08,0.0,0.0,0.0,9e-08
1560469598210459209,33223,1560469598205107008,base_link,-0.00223143408687,0.00158054059014,-0.599653538422,-0.800255130685,1.0,0.0,0.0,0.0,1.0,0.0,0.0,0.0,1.0,-0.000584074819926,-0.000476817658637,-0.00245452858508,1.21846967915e-07,0.0,0.0,0.0,1.21846967915e-07,0.0,0.0,0.0,1.21846967915e-07,0.0696714371443,0.0295333601534,9.83342647552,9e-08,0.0,0.0,0.0,9e-08,0.0,0.0,0.0,9e-08
1560469598231967633,33224,1560469598229107008,base_link,-0.00223971437856,0.00158427774791,-0.599634856831,-0.800269091829,1.0,0.0,0.0,0.0,1.0,0.0,0.0,0.0,1.0,0.00113253144082,-0.000688613159582,-0.0015201899223,1.21846967915e-07,0.0,0.0,0.0,1.21846967915e-07,0.0,0.0,0.0,1.21846967915e-07,0.0588908717036,-0.00298847258091,9.80946731567,9e-08,0.0,0.0,0.0,9e-08,0.0,0.0,0.0,9e-08
1560469598254110261,33225,1560469598249107008,base_link,-0.00222900197911,0.00157669413457,-0.599624846955,-0.800276657188,1.0,0.0,0.0,0.0,1.0,0.0,0.0,0.0,1.0,-0.00143743492663,0.00112255685963,-0.00256266351789,1.21846967915e-07,0.0,0.0,0.0,1.21846967915e-07,0.0,0.0,0.0,1.21846967915e-07,0.0493239834905,0.0220883190632,9.76952457428,9e-08,0.0,0.0,0.0,9e-08,0.0,0.0,0.0,9e-08
1560469598272231018,33226,1560469598269107008,base_link,-0.00223924413663,0.00157546876846,-0.599615511428,-0.800283632492,1.0,0.0,0.0,0.0,1.0,0.0,0.0,0.0,1.0,-0.000357816345058,-0.000575356301852,-0.00139613111969,1.21846967915e-07,0.0,0.0,0.0,1.21846967915e-07,0.0,0.0,0.0,1.21846967915e-07,0.0465572550893,0.0137364789844,9.80971240997,9e-08,0.0,0.0,0.0,9e-08,0.0,0.0,0.0,9e-08
1560469598290799634,33227,1560469598285107008,base_link,-0.00224310162282,0.00158014075073,-0.599610116631,-0.800287594295,1.0,0.0,0.0,0.0,1.0,0.0,0.0,0.0,1.0,-0.00238146120682,0.000916613615118,-0.00115673278924,1.21846967915e-07,0.0,0.0,0.0,1.21846967915e-07,0.0,0.0,0.0,1.21846967915e-07,0.0638381913304,0.018437281251,9.82098770142,9e-08,0.0,0.0,0.0,9e-08,0.0,0.0,0.0,9e-08
1560469598312313400,33228,1560469598309105216,base_link,-0.00222439733301,0.00158942818335,-0.599597209159,-0.800297298607,1.0,0.0,0.0,0.0,1.0,0.0,0.0,0.0,1.0,-0.00047748000361,-0.000157345406478,-0.00235457206145,1.21846967915e-07,0.0,0.0,0.0,1.21846967915e-07,0.0,0.0,0.0,1.21846967915e-07,0.055721141398,0.00218952447176,9.78449344635,9e-08,0.0,0.0,0.0,9e-08,0.0,0.0,0.0,9e-08
1560469598332909111,33229,1560469598329105216,base_link,-0.002233907827,0.00158907376292,-0.599584196319,-0.800307023993,1.0,0.0,0.0,0.0,1.0,0.0,0.0,0.0,1.0,-3.90326895285e-05,0.000270657823421,-0.00151269615162,1.21846967915e-07,0.0,0.0,0.0,1.21846967915e-07,0.0,0.0,0.0,1.21846967915e-07,0.0738650709391,0.0258390642703,9.86799716949,9e-08,0.0,0.0,0.0,9e-08,0.0,0.0,0.0,9e-08
1560469598350630250,33230,1560469598345105216,base_link,-0.0022287262136,0.0015792517568,-0.59957961285,-0.800310427351,1.0,0.0,0.0,0.0,1.0,0.0,0.0,0.0,1.0,-4.98603039887e-05,0.000582831271458,-0.00162777013611,1.21846967915e-07,0.0,0.0,0.0,1.21846967915e-07,0.0,0.0,0.0,1.21846967915e-07,0.0285910516977,-0.000137530267237,9.79195404053,9e-08,0.0,0.0,0.0,9e-08,0.0,0.0,0.0,9e-08
1560469598372710033,33231,1560469598369105216,base_link,-0.0022310837412,0.00157671082456,-0.599573870342,-0.80031482116,1.0,0.0,0.0,0.0,1.0,0.0,0.0,0.0,1.0,0.000297960999887,-0.000456573412521,8.63843597472e-05,1.21846967915e-07,0.0,0.0,0.0,1.21846967915e-07,0.0,0.0,0.0,1.21846967915e-07,0.0438905060291,0.0181488320231,9.84734630585,9e-08,0.0,0.0,0.0,9e-08,0.0,0.0,0.0,9e-08
1560469598392245426,33232,1560469598389105216,base_link,-0.00223578410262,0.00157033018682,-0.599567053089,-0.800319868245,1.0,0.0,0.0,0.0,1.0,0.0,0.0,0.0,1.0,0.000399595533963,-0.000367136002751,-0.00034479633905,1.21846967915e-07,0.0,0.0,0.0,1.21846967915e-07,0.0,0.0,0.0,1.21846967915e-07,0.0363129600883,-0.0120603740215,9.82193088531,9e-08,0.0,0.0,0.0,9e-08,0.0,0.0,0.0,9e-08
1560469598410761170,33233,1560469598405103424,base_link,-0.00223924609168,0.00156974965926,-0.599556547987,-0.800327760242,1.0,0.0,0.0,0.0,1.0,0.0,0.0,0.0,1.0,0.00122727127746,0.000586752954405,-0.00205970322713,1.21846967915e-07,0.0,0.0,0.0,1.21846967915e-07,0.0,0.0,0.0,1.21846967915e-07,0.0166863799095,-0.00334300845861,9.83313941956,9e-08,0.0,0.0,0.0,9e-08,0.0,0.0,0.0,9e-08
1560469598432807320,33234,1560469598429103424,base_link,-0.00223417402304,0.0015683136618,-0.59954105902,-0.800339455993,1.0,0.0,0.0,0.0,1.0,0.0,0.0,0.0,1.0,0.000587773043662,4.62163952761e-05,-0.000984178390354,1.21846967915e-07,0.0,0.0,0.0,1.21846967915e-07,0.0,0.0,0.0,1.21846967915e-07,0.0426554828882,-0.00311587005854,9.81346797943,9e-08,0.0,0.0,0.0,9e-08,0.0,0.0,0.0,9e-08
1560469598450816053,33235,1560469598445103424,base_link,-0.00223763776135,0.00156636457585,-0.599531881544,-0.800346188952,1.0,0.0,0.0,0.0,1.0,0.0,0.0,0.0,1.0,0.00175111764111,-0.00175536121242,-0.00269381236285,1.21846967915e-07,0.0,0.0,0.0,1.21846967915e-07,0.0,0.0,0.0,1.21846967915e-07,0.0747730433941,0.0104124769568,9.82640647888,9e-08,0.0,0.0,0.0,9e-08,0.0,0.0,0.0,9e-08
1560469598472156725,33236,1560469598469103424,base_link,-0.00223257312192,0.00157021156649,-0.599521302685,-0.800354154706,1.0,0.0,0.0,0.0,1.0,0.0,0.0,0.0,1.0,6.37841585558e-05,0.000910129863769,-0.00161818880588,1.21846967915e-07,0.0,0.0,0.0,1.21846967915e-07,0.0,0.0,0.0,1.21846967915e-07,0.0534509345889,0.0455101691186,9.79688835144,9e-08,0.0,0.0,0.0,9e-08,0.0,0.0,0.0,9e-08
1560469598490781305,33237,1560469598485103424,base_link,-0.00223897530641,0.00157006094501,-0.59951250453,-0.800360761224,1.0,0.0,0.0,0.0,1.0,0.0,0.0,0.0,1.0,0.00219155615196,-0.00121829821728,-0.00163884740323,1.21846967915e-07,0.0,0.0,0.0,1.21846967915e-07,0.0,0.0,0.0,1.21846967915e-07,0.0375069826841,0.00846157968044,9.82007980347,9e-08,0.0,0.0,0.0,9e-08,0.0,0.0,0.0,9e-08
1560469598512008610,33238,1560469598509101376,base_link,-0.0022348216604,0.00156627484916,-0.599503706376,-0.800367367743,1.0,0.0,0.0,0.0,1.0,0.0,0.0,0.0,1.0,0.00103138794657,0.000915172451641,-0.000565893482417,1.21846967915e-07,0.0,0.0,0.0,1.21846967915e-07,0.0,0.0,0.0,1.21846967915e-07,0.0497861728072,0.014812041074,9.84796619415,9e-08,0.0,0.0,0.0,9e-08,0.0,0.0,0.0,9e-08
1560469598533101870,33239,1560469598529101376,base_link,-0.00223202257871,0.00156602322342,-0.599493622742,-0.800375006859,1.0,0.0,0.0,0.0,1.0,0.0,0.0,0.0,1.0,0.00154144933913,-0.000154048437253,-0.00259470869787,1.21846967915e-07,0.0,0.0,0.0,1.21846967915e-07,0.0,0.0,0.0,1.21846967915e-07,0.0404245257378,0.0107790380716,9.81604194641,9e-08,0.0,0.0,0.0,9e-08,0.0,0.0,0.0,9e-08
1560469598550879895,33240,1560469598545101376,base_link,-0.00223180853117,0.00156949245647,-0.599485541084,-0.800380981175,1.0,0.0,0.0,0.0,1.0,0.0,0.0,0.0,1.0,0.000273167475825,0.000906516972464,-0.00173046055716,1.21846967915e-07,0.0,0.0,0.0,1.21846967915e-07,0.0,0.0,0.0,1.21846967915e-07,0.0577483922243,-0.0127313286066,9.86636066437,9e-08,0.0,0.0,0.0,9e-08,0.0,0.0,0.0,9e-08
1560469598573238542,33241,1560469598569101376,base_link,-0.00222992534083,0.00157273916321,-0.599472717905,-0.8003905169,1.0,0.0,0.0,0.0,1.0,0.0,0.0,0.0,1.0,0.00145348045044,6.15062162979e-05,-0.000995702343062,1.21846967915e-07,0.0,0.0,0.0,1.21846967915e-07,0.0,0.0,0.0,1.21846967915e-07,0.0340365990996,0.00190323591232,9.84170913696,9e-08,0.0,0.0,0.0,9e-08,0.0,0.0,0.0,9e-08
1560469598592168964,33242,1560469598589101376,base_link,-0.0022303380836,0.00157884337689,-0.599467481159,-0.800394404946,1.0,0.0,0.0,0.0,1.0,0.0,0.0,0.0,1.0,0.000400369579438,0.00176552485209,-0.000357970478944,1.21846967915e-07,0.0,0.0,0.0,1.21846967915e-07,0.0,0.0,0.0,1.21846967915e-07,0.0388272702694,0.0208286494017,9.80586528778,9e-08,0.0,0.0,0.0,9e-08,0.0,0.0,0.0,9e-08
1560469598612308061,33243,1560469598609099584,base_link,-0.00223041900225,0.00157533374625,-0.599460389952,-0.800399894573,1.0,0.0,0.0,0.0,1.0,0.0,0.0,0.0,1.0,0.00144698109943,-0.000152323656948,-0.00121055892669,1.21846967915e-07,0.0,0.0,0.0,1.21846967915e-07,0.0,0.0,0.0,1.21846967915e-07,0.039228014648,0.00645700097084,9.79956150055,9e-08,0.0,0.0,0.0,9e-08,0.0,0.0,0.0,9e-08
1560469598631892066,33244,1560469598629099584,base_link,-0.00223362115434,0.00158009636071,-0.599456617809,-0.800402570898,1.0,0.0,0.0,0.0,1.0,0.0,0.0,0.0,1.0,-0.000244206719799,0.000809425779153,-0.000335023854859,1.21846967915e-07,0.0,0.0,0.0,1.21846967915e-07,0.0,0.0,0.0,1.21846967915e-07,0.0592068433762,0.00476330518723,9.8286113739,9e-08,0.0,0.0,0.0,9e-08,0.0,0.0,0.0,9e-08
1560469598650732660,33245,1560469598645099584,base_link,-0.00223334162278,0.00158514309597,-0.599450285245,-0.800407301882,1.0,0.0,0.0,0.0,1.0,0.0,0.0,0.0,1.0,0.000814636121504,-0.00195862888359,-0.00076678203186,1.21846967915e-07,0.0,0.0,0.0,1.21846967915e-07,0.0,0.0,0.0,1.21846967915e-07,0.0494271665812,0.00180826336146,9.81213474274,9e-08,0.0,0.0,0.0,9e-08,0.0,0.0,0.0,9e-08
1560469598671944334,33246,1560469598667099584,base_link,-0.00223296501764,0.00159140182066,-0.59944209822,-0.800413550152,1.0,0.0,0.0,0.0,1.0,0.0,0.0,0.0,1.0,-0.000119338801596,0.000495451618917,0.000832192599773,1.21846967915e-07,0.0,0.0,0.0,1.21846967915e-07,0.0,0.0,0.0,1.21846967915e-07,0.0511595234275,-0.00854032486677,9.83738231659,9e-08,0.0,0.0,0.0,9e-08,0.0,0.0,0.0,9e-08
1560469598693555159,33247,1560469598691099584,base_link,-0.00222108989612,0.00158885975654,-0.599431340237,-0.800421610737,1.0,0.0,0.0,0.0,1.0,0.0,0.0,0.0,1.0,6.66807318339e-05,0.000699391530361,-0.00108666508459,1.21846967915e-07,0.0,0.0,0.0,1.21846967915e-07,0.0,0.0,0.0,1.21846967915e-07,0.0218732506037,-0.0124350562692,9.8199338913,9e-08,0.0,0.0,0.0,9e-08,0.0,0.0,0.0,9e-08
1560469598714342167,33248,1560469598711097536,base_link,-0.00222163115796,0.00158845810613,-0.599424027758,-0.800427068754,1.0,0.0,0.0,0.0,1.0,0.0,0.0,0.0,1.0,0.000814815051854,0.000380254554329,-0.000346616841853,1.21846967915e-07,0.0,0.0,0.0,1.21846967915e-07,0.0,0.0,0.0,1.21846967915e-07,0.018590644002,-0.0102080032229,9.78849983215,9e-08,0.0,0.0,0.0,9e-08,0.0,0.0,0.0,9e-08
1560469598731905491,33249,1560469598727097536,base_link,-0.00221636697954,0.00159189679917,-0.599417716268,-0.800431694371,1.0,0.0,0.0,0.0,1.0,0.0,0.0,0.0,1.0,-0.00119019066915,0.00038726371713,0.000421648845077,1.21846967915e-07,0.0,0.0,0.0,1.21846967915e-07,0.0,0.0,0.0,1.21846967915e-07,0.0353177562356,-0.00478530675173,9.82788181305,9e-08,0.0,0.0,0.0,9e-08,0.0,0.0,0.0,9e-08
1560469598754098416,33250,1560469598751097536,base_link,-0.00222262786508,0.00158687002605,-0.599407474584,-0.800439491538,1.0,0.0,0.0,0.0,1.0,0.0,0.0,0.0,1.0,0.000397898489609,-4.51510459243e-05,-0.000981095130555,1.21846967915e-07,0.0,0.0,0.0,1.21846967915e-07,0.0,0.0,0.0,1.21846967915e-07,0.0645924583077,0.0483311526477,9.80833911896,9e-08,0.0,0.0,0.0,9e-08,0.0,0.0,0.0,9e-08
1560469598770396795,33251,1560469598767097536,base_link,-0.00222095119018,0.00157906794057,-0.599400646794,-0.800444549159,1.0,0.0,0.0,0.0,1.0,0.0,0.0,0.0,1.0,-0.000678187119775,0.000592723314185,-0.00107613601722,1.21846967915e-07,0.0,0.0,0.0,1.21846967915e-07,0.0,0.0,0.0,1.21846967915e-07,0.0523403212428,0.0217949748039,9.81786060333,9e-08,0.0,0.0,0.0,9e-08,0.0,0.0,0.0,9e-08
1560469598794312362,33252,1560469598791097536,base_link,-0.00222531528232,0.00158581777482,-0.599385221048,-0.80045618169,1.0,0.0,0.0,0.0,1.0,0.0,0.0,0.0,1.0,0.000381423684303,-0.00121889030561,-0.00161220727023,1.21846967915e-07,0.0,0.0,0.0,1.21846967915e-07,0.0,0.0,0.0,1.21846967915e-07,0.0568981543183,0.0303019285202,9.80171394348,9e-08,0.0,0.0,0.0,9e-08,0.0,0.0,0.0,9e-08
1560469598810734326,33253,1560469598807095744,base_link,-0.0022291163189,0.00159704143119,-0.599380964216,-0.800459174116,1.0,0.0,0.0,0.0,1.0,0.0,0.0,0.0,1.0,-0.0021606287919,-0.00100212439429,-0.000622181105427,1.21846967915e-07,0.0,0.0,0.0,1.21846967915e-07,0.0,0.0,0.0,1.21846967915e-07,0.069352388382,-0.00553077459335,9.77227783203,9e-08,0.0,0.0,0.0,9e-08,0.0,0.0,0.0,9e-08
1560469598834015779,33254,1560469598831095744,base_link,-0.00222716873525,0.00159810557737,-0.599369847985,-0.800467508655,1.0,0.0,0.0,0.0,1.0,0.0,0.0,0.0,1.0,-0.000151445172378,-0.000683768303134,-0.00128665356897,1.21846967915e-07,0.0,0.0,0.0,1.21846967915e-07,0.0,0.0,0.0,1.21846967915e-07,0.0330293476582,0.030697979033,9.80656147003,9e-08,0.0,0.0,0.0,9e-08,0.0,0.0,0.0,9e-08
1560469598850986996,33255,1560469598847095744,base_link,-0.00222780542432,0.00159950412011,-0.599358626386,-0.800476032855,1.0,0.0,0.0,0.0,1.0,0.0,0.0,0.0,1.0,-0.00048326846445,-0.000161739619216,-0.00299418345094,1.21846967915e-07,0.0,0.0,0.0,1.21846967915e-07,0.0,0.0,0.0,1.21846967915e-07,0.0503049269319,0.0286261327565,9.80775165558,9e-08,0.0,0.0,0.0,9e-08,0.0,0.0,0.0,9e-08
1560469598871650168,33256,1560469598867095744,base_link,-0.00222274455093,0.00159789986453,-0.599348658657,-0.800483471774,1.0,0.0,0.0,0.0,1.0,0.0,0.0,0.0,1.0,-0.000259384163655,-0.000690922664944,-0.00161414884496,1.21846967915e-07,0.0,0.0,0.0,1.21846967915e-07,0.0,0.0,0.0,1.21846967915e-07,0.0357533618808,-0.000274218618869,9.83009815216,9e-08,0.0,0.0,0.0,9e-08,0.0,0.0,0.0,9e-08
1560469598893490468,33257,1560469598891095744,base_link,-0.00223210876572,0.00160404733636,-0.59933095698,-0.800496705884,1.0,0.0,0.0,0.0,1.0,0.0,0.0,0.0,1.0,4.86704375362e-05,-0.00122136098798,-0.00203898618929,1.21846967915e-07,0.0,0.0,0.0,1.21846967915e-07,0.0,0.0,0.0,1.21846967915e-07,0.0609930306673,0.0263300612569,9.7928609848,9e-08,0.0,0.0,0.0,9e-08,0.0,0.0,0.0,9e-08
1560469598911843256,33258,1560469598907093696,base_link,-0.00222987076395,0.00160120499652,-0.599322917469,-0.800502638053,1.0,0.0,0.0,0.0,1.0,0.0,0.0,0.0,1.0,0.000493341125548,-0.000363424886018,-0.000984444865026,1.21846967915e-07,0.0,0.0,0.0,1.21846967915e-07,0.0,0.0,0.0,1.21846967915e-07,0.0403599515557,0.0215116813779,9.82574939728,9e-08,0.0,0.0,0.0,9e-08,0.0,0.0,0.0,9e-08
1560469598933685897,33259,1560469598931093696,base_link,-0.00223458505771,0.00160255490987,-0.599308745591,-0.80051335389,1.0,0.0,0.0,0.0,1.0,0.0,0.0,0.0,1.0,-0.00132044253405,-0.00111153745092,-0.00127694196999,1.21846967915e-07,0.0,0.0,0.0,1.21846967915e-07,0.0,0.0,0.0,1.21846967915e-07,0.0293665528297,0.0120044462383,9.81784915924,9e-08,0.0,0.0,0.0,9e-08,0.0,0.0,0.0,9e-08
1560469598952086539,33260,1560469598947093696,base_link,-0.0022332872517,0.00160481715431,-0.599299684019,-0.800520139532,1.0,0.0,0.0,0.0,1.0,0.0,0.0,0.0,1.0,5.11782709509e-05,-0.000689825275913,-0.00214754184708,1.21846967915e-07,0.0,0.0,0.0,1.21846967915e-07,0.0,0.0,0.0,1.21846967915e-07,0.0276537612081,0.0451842695475,9.79691410065,9e-08,0.0,0.0,0.0,9e-08,0.0,0.0,0.0,9e-08
1560469598970783963,33261,1560469598967093696,base_link,-0.00223413502486,0.00160197497911,-0.599284163442,-0.800531782599,1.0,0.0,0.0,0.0,1.0,0.0,0.0,0.0,1.0,-0.000582783075515,5.57080638828e-05,-0.00182363681961,1.21846967915e-07,0.0,0.0,0.0,1.21846967915e-07,0.0,0.0,0.0,1.21846967915e-07,0.0280321314931,0.0148975029588,9.8259305954,9e-08,0.0,0.0,0.0,9e-08,0.0,0.0,0.0,9e-08
1560469598990589908,33262,1560469598987093696,base_link,-0.00224238531161,0.00160463512849,-0.599274374836,-0.800539042394,1.0,0.0,0.0,0.0,1.0,0.0,0.0,0.0,1.0,0.000912161835004,0.00080288114259,-0.00131727510598,1.21846967915e-07,0.0,0.0,0.0,1.21846967915e-07,0.0,0.0,0.0,1.21846967915e-07,0.0270223617554,0.0255462154746,9.85711669922,9e-08,0.0,0.0,0.0,9e-08,0.0,0.0,0.0,9e-08
1560469599012074449,33263,1560469599007091648,base_link,-0.00224929021252,0.00160728900112,-0.599263121628,-0.800547429617,1.0,0.0,0.0,0.0,1.0,0.0,0.0,0.0,1.0,0.00304814847186,-0.000575737038162,-0.000594487995841,1.21846967915e-07,0.0,0.0,0.0,1.21846967915e-07,0.0,0.0,0.0,1.21846967915e-07,0.0286373347044,0.0108951553702,9.79835414886,9e-08,0.0,0.0,0.0,9e-08,0.0,0.0,0.0,9e-08
1560469599030612379,33264,1560469599028091648,base_link,-0.00224892183918,0.0016156909589,-0.599253954688,-0.800554236333,1.0,0.0,0.0,0.0,1.0,0.0,0.0,0.0,1.0,-4.63141623186e-05,-0.000152329055709,-0.00129750650376,1.21846967915e-07,0.0,0.0,0.0,1.21846967915e-07,0.0,0.0,0.0,1.21846967915e-07,0.0589812099934,0.0129583589733,9.82486629486,9e-08,0.0,0.0,0.0,9e-08,0.0,0.0,0.0,9e-08
1560469599050932424,33265,1560469599048091648,base_link,-0.00223747296059,0.00161714247332,-0.599247685344,-0.80055898839,1.0,0.0,0.0,0.0,1.0,0.0,0.0,0.0,1.0,-0.000667604850605,-0.000779530906584,-0.000107551226392,1.21846967915e-07,0.0,0.0,0.0,1.21846967915e-07,0.0,0.0,0.0,1.21846967915e-07,0.0220100581646,0.000313535332681,9.79997348785,9e-08,0.0,0.0,0.0,9e-08,0.0,0.0,0.0,9e-08
1560469599070164266,33266,1560469599068091648,base_link,-0.00223829879598,0.00162084149724,-0.599236832531,-0.800567143805,1.0,0.0,0.0,0.0,1.0,0.0,0.0,0.0,1.0,0.00132563454099,-0.000690020562615,-0.0022697832901,1.21846967915e-07,0.0,0.0,0.0,1.21846967915e-07,0.0,0.0,0.0,1.21846967915e-07,0.0431611388922,-0.0037182867527,9.81978321075,9e-08,0.0,0.0,0.0,9e-08,0.0,0.0,0.0,9e-08
1560469599094922093,33267,1560469599092091648,base_link,-0.00222767309803,0.00161995089811,-0.599227360027,-0.800574256086,1.0,0.0,0.0,0.0,1.0,0.0,0.0,0.0,1.0,-0.00165701657534,-0.000157300499268,-0.00202032108791,1.21846967915e-07,0.0,0.0,0.0,1.21846967915e-07,0.0,0.0,0.0,1.21846967915e-07,0.010754995048,-0.0163194164634,9.7698097229,9e-08,0.0,0.0,0.0,9e-08,0.0,0.0,0.0,9e-08
1560469599110869081,33268,1560469599108088320,base_link,-0.00222209930079,0.00162850460925,-0.599219573396,-0.800580019667,1.0,0.0,0.0,0.0,1.0,0.0,0.0,0.0,1.0,0.000476054032333,5.71598357055e-05,-0.00172795937397,1.21846967915e-07,0.0,0.0,0.0,1.21846967915e-07,0.0,0.0,0.0,1.21846967915e-07,0.0460290163755,0.00231281667948,9.78948116302,9e-08,0.0,0.0,0.0,9e-08,0.0,0.0,0.0,9e-08
1560469599131091630,33269,1560469599128088320,base_link,-0.00221749313181,0.00162638374608,-0.599208478238,-0.800588417427,1.0,0.0,0.0,0.0,1.0,0.0,0.0,0.0,1.0,0.00036990706576,0.000589818111621,-0.00205081002787,1.21846967915e-07,0.0,0.0,0.0,1.21846967915e-07,0.0,0.0,0.0,1.21846967915e-07,0.0528851673007,0.0175843387842,9.80065059662,9e-08,0.0,0.0,0.0,9e-08,0.0,0.0,0.0,9e-08
1560469599150939049,33270,1560469599148088320,base_link,-0.00221331711587,0.00162793710852,-0.59919965901,-0.800594960725,1.0,0.0,0.0,0.0,1.0,0.0,0.0,0.0,1.0,0.00112589425407,0.00080456782598,-0.00121021131054,1.21846967915e-07,0.0,0.0,0.0,1.21846967915e-07,0.0,0.0,0.0,1.21846967915e-07,0.06143450737,0.016009747982,9.86904621124,9e-08,0.0,0.0,0.0,9e-08,0.0,0.0,0.0,9e-08
1560469599170800545,33271,1560469599168088320,base_link,-0.00221341297525,0.00162654852626,-0.59918636168,-0.800604970601,1.0,0.0,0.0,0.0,1.0,0.0,0.0,0.0,1.0,0.000256725470535,-0.000905916560441,-0.00257256580517,1.21846967915e-07,0.0,0.0,0.0,1.21846967915e-07,0.0,0.0,0.0,1.21846967915e-07,0.0631654337049,0.00671439617872,9.82056617737,9e-08,0.0,0.0,0.0,9e-08,0.0,0.0,0.0,9e-08
1560469599190727798,33272,1560469599188088320,base_link,-0.002219292687,0.00161997075734,-0.599178206264,-0.800611018674,1.0,0.0,0.0,0.0,1.0,0.0,0.0,0.0,1.0,0.00101011933293,-0.00132268981542,-0.00172689114697,1.21846967915e-07,0.0,0.0,0.0,1.21846967915e-07,0.0,0.0,0.0,1.21846967915e-07,0.0809577852488,0.0205559134483,9.84343910217,9e-08,0.0,0.0,0.0,9e-08,0.0,0.0,0.0,9e-08
1560469599211450788,33273,1560469599208085248,base_link,-0.00221670934037,0.00162692222969,-0.599169587234,-0.800617446069,1.0,0.0,0.0,0.0,1.0,0.0,0.0,0.0,1.0,-0.00112107302994,-0.000476524350233,-0.00202332157642,1.21846967915e-07,0.0,0.0,0.0,1.21846967915e-07,0.0,0.0,0.0,1.21846967915e-07,0.0419700145721,0.0189716108143,9.81128692627,9e-08,0.0,0.0,0.0,9e-08,0.0,0.0,0.0,9e-08
1560469599230242322,33274,1560469599228085248,base_link,-0.00221935057717,0.00163100868358,-0.599158376172,-0.800625875438,1.0,0.0,0.0,0.0,1.0,0.0,0.0,0.0,1.0,0.000892670534085,-0.000903903390281,-0.0026855294127,1.21846967915e-07,0.0,0.0,0.0,1.21846967915e-07,0.0,0.0,0.0,1.21846967915e-07,0.0593100488186,0.021904297173,9.82915878296,9e-08,0.0,0.0,0.0,9e-08,0.0,0.0,0.0,9e-08
1560469599251694764,33275,1560469599248085248,base_link,-0.00222092787359,0.00162389401567,-0.599152739031,-0.800630079586,1.0,0.0,0.0,0.0,1.0,0.0,0.0,0.0,1.0,0.000284278008621,0.00144754885696,-0.000453729880974,1.21846967915e-07,0.0,0.0,0.0,1.21846967915e-07,0.0,0.0,0.0,1.21846967915e-07,0.0556986555457,0.0141878128052,9.80595874786,9e-08,0.0,0.0,0.0,9e-08,0.0,0.0,0.0,9e-08
1560469599270823397,33276,1560469599268085248,base_link,-0.00222005803919,0.0016292564407,-0.599142265539,-0.800637939974,1.0,0.0,0.0,0.0,1.0,0.0,0.0,0.0,1.0,-0.000154309615027,-0.000153255576151,-0.0021385634318,1.21846967915e-07,0.0,0.0,0.0,1.21846967915e-07,0.0,0.0,0.0,1.21846967915e-07,0.0708352178335,0.00738649815321,9.76791572571,9e-08,0.0,0.0,0.0,9e-08,0.0,0.0,0.0,9e-08
1560469599290849052,33277,1560469599288085248,base_link,-0.00221349323537,0.00163386009898,-0.599126818719,-0.800649509284,1.0,0.0,0.0,0.0,1.0,0.0,0.0,0.0,1.0,-0.00100889976602,0.000273569661658,-0.00139139196835,1.21846967915e-07,0.0,0.0,0.0,1.21846967915e-07,0.0,0.0,0.0,1.21846967915e-07,0.0713989287615,-0.010760307312,9.76550006866,9e-08,0.0,0.0,0.0,9e-08,0.0,0.0,0.0,9e-08
1560469599310858349,33278,1560469599308082688,base_link,-0.00220655618926,0.00164109447794,-0.599114027151,-0.800659097692,1.0,0.0,0.0,0.0,1.0,0.0,0.0,0.0,1.0,-0.0011251240503,-0.00111705297604,-0.00212906464003,1.21846967915e-07,0.0,0.0,0.0,1.21846967915e-07,0.0,0.0,0.0,1.21846967915e-07,0.038647711277,-0.0259182155132,9.78423404694,9e-08,0.0,0.0,0.0,9e-08,0.0,0.0,0.0,9e-08
1560469599331178099,33279,1560469599328082688,base_link,-0.00221404416959,0.00164201281825,-0.599103701173,-0.800666726271,1.0,0.0,0.0,0.0,1.0,0.0,0.0,0.0,1.0,-0.00124136370141,-0.00122769211885,-0.00329548656009,1.21846967915e-07,0.0,0.0,0.0,1.21846967915e-07,0.0,0.0,0.0,1.21846967915e-07,0.0312814116478,0.00794645398855,9.79881286621,9e-08,0.0,0.0,0.0,9e-08,0.0,0.0,0.0,9e-08
1560469599352814674,33280,1560469599348082688,base_link,-0.00220950694198,0.0016428849164,-0.599091794688,-0.800675682477,1.0,0.0,0.0,0.0,1.0,0.0,0.0,0.0,1.0,-0.00196368130855,0.000903388718143,-0.00137646787334,1.21846967915e-07,0.0,0.0,0.0,1.21846967915e-07,0.0,0.0,0.0,1.21846967915e-07,0.0316366925836,-0.00612217932939,9.75602340698,9e-08,0.0,0.0,0.0,9e-08,0.0,0.0,0.0,9e-08
1560469599371764159,33281,1560469599368082688,base_link,-0.0022234780872,0.00164344455575,-0.599084282013,-0.800681172104,1.0,0.0,0.0,0.0,1.0,0.0,0.0,0.0,1.0,0.000596490281168,-0.000677700852975,-0.00109135382809,1.21846967915e-07,0.0,0.0,0.0,1.21846967915e-07,0.0,0.0,0.0,1.21846967915e-07,0.0710329413414,0.0183925181627,9.83720874786,9e-08,0.0,0.0,0.0,9e-08,0.0,0.0,0.0,9e-08
1560469599390387070,33282,1560469599388082688,base_link,-0.00221984090472,0.00164654831718,-0.599074198379,-0.800688726926,1.0,0.0,0.0,0.0,1.0,0.0,0.0,0.0,1.0,-0.00122341967653,0.000164759156178,-0.00149313930888,1.21846967915e-07,0.0,0.0,0.0,1.21846967915e-07,0.0,0.0,0.0,1.21846967915e-07,0.0789011418819,0.0306121185422,9.76100444794,9e-08,0.0,0.0,0.0,9e-08,0.0,0.0,0.0,9e-08
1560469599410951785,33283,1560469599408080640,base_link,-0.00222100928615,0.00164791236865,-0.599062650143,-0.800697409177,1.0,0.0,0.0,0.0,1.0,0.0,0.0,0.0,1.0,-0.000804996117949,-0.00111368740909,-0.00170498387888,1.21846967915e-07,0.0,0.0,0.0,1.21846967915e-07,0.0,0.0,0.0,1.21846967915e-07,0.0520793497562,0.0179362855852,9.7873878479,9e-08,0.0,0.0,0.0,9e-08,0.0,0.0,0.0,9e-08
1560469599430829849,33284,1560469599428080640,base_link,-0.00222647129546,0.00164503086599,-0.599049574083,-0.800707197783,1.0,0.0,0.0,0.0,1.0,0.0,0.0,0.0,1.0,-0.000264633999905,-0.00100646819919,-0.00149797624908,1.21846967915e-07,0.0,0.0,0.0,1.21846967915e-07,0.0,0.0,0.0,1.21846967915e-07,0.0539714619517,-0.000976629555224,9.81978130341,9e-08,0.0,0.0,0.0,9e-08,0.0,0.0,0.0,9e-08
1560469599451510913,33285,1560469599448080640,base_link,-0.0022260158502,0.00163882776774,-0.599038689659,-0.800715300514,1.0,0.0,0.0,0.0,1.0,0.0,0.0,0.0,1.0,0.000892689393368,-0.00122357578948,-0.00247181928717,1.21846967915e-07,0.0,0.0,0.0,1.21846967915e-07,0.0,0.0,0.0,1.21846967915e-07,0.0463753342628,0.0394563004375,9.82104969025,9e-08,0.0,0.0,0.0,9e-08,0.0,0.0,0.0,9e-08
1560469599470750488,33286,1560469599468080640,base_link,-0.00222626840201,0.00163105562546,-0.599029944188,-0.800721938643,1.0,0.0,0.0,0.0,1.0,0.0,0.0,0.0,1.0,-0.000589999486692,0.00165010814089,-0.00182517513167,1.21846967915e-07,0.0,0.0,0.0,1.21846967915e-07,0.0,0.0,0.0,1.21846967915e-07,0.0249470025301,0.0495076775551,9.82323169708,9e-08,0.0,0.0,0.0,9e-08,0.0,0.0,0.0,9e-08
1560469599491307690,33287,1560469599488080640,base_link,-0.00222491538116,0.00162601352059,-0.599025729503,-0.800725141803,1.0,0.0,0.0,0.0,1.0,0.0,0.0,0.0,1.0,0.000260975793935,-0.000264518574113,-0.00182776350994,1.21846967915e-07,0.0,0.0,0.0,1.21846967915e-07,0.0,0.0,0.0,1.21846967915e-07,0.0337534919381,0.0495737381279,9.84177589417,9e-08,0.0,0.0,0.0,9e-08,0.0,0.0,0.0,9e-08
1560469599510770646,33288,1560469599508078080,base_link,-0.00222139120081,0.00162709647645,-0.59901641505,-0.80073201174,1.0,0.0,0.0,0.0,1.0,0.0,0.0,0.0,1.0,-0.00134153862018,0.00080014258856,-0.00170128361788,1.21846967915e-07,0.0,0.0,0.0,1.21846967915e-07,0.0,0.0,0.0,1.21846967915e-07,0.0326263457537,0.0308866240084,9.82611751556,9e-08,0.0,0.0,0.0,9e-08,0.0,0.0,0.0,9e-08
1560469599532596964,33289,1560469599529078080,base_link,-0.00221932065456,0.00162141661239,-0.599012305732,-0.800735109533,1.0,0.0,0.0,0.0,1.0,0.0,0.0,0.0,1.0,0.00250505283475,-0.00121587119065,-0.000902455591131,1.21846967915e-07,0.0,0.0,0.0,1.21846967915e-07,0.0,0.0,0.0,1.21846967915e-07,0.0360484346747,0.00843051820994,9.80490779877,9e-08,0.0,0.0,0.0,9e-08,0.0,0.0,0.0,9e-08
1560469599552971515,33290,1560469599549078080,base_link,-0.00222295353592,0.00162033229828,-0.599002000828,-0.800742801333,1.0,0.0,0.0,0.0,1.0,0.0,0.0,0.0,1.0,0.00185885000974,0.00144004193135,-0.00175043882336,1.21846967915e-07,0.0,0.0,0.0,1.21846967915e-07,0.0,0.0,0.0,1.21846967915e-07,0.0209603831172,-0.00340063869953,9.81031608582,9e-08,0.0,0.0,0.0,9e-08,0.0,0.0,0.0,9e-08
1560469599572423240,33291,1560469599569078080,base_link,-0.00222729157439,0.00162695244042,-0.598992212222,-0.800750061127,1.0,0.0,0.0,0.0,1.0,0.0,0.0,0.0,1.0,0.000574299192522,-0.00175043242052,-0.00204318249598,1.21846967915e-07,0.0,0.0,0.0,1.21846967915e-07,0.0,0.0,0.0,1.21846967915e-07,0.0661757066846,-0.00573544204235,9.80735301971,9e-08,0.0,0.0,0.0,9e-08,0.0,0.0,0.0,9e-08
1560469599590779610,33292,1560469599585078080,base_link,-0.00222144625101,0.00162701738937,-0.598979589241,-0.800759649536,1.0,0.0,0.0,0.0,1.0,0.0,0.0,0.0,1.0,0.00101621320937,0.000911576731596,-0.00109874014743,1.21846967915e-07,0.0,0.0,0.0,1.21846967915e-07,0.0,0.0,0.0,1.21846967915e-07,0.0719135850668,0.030508838594,9.84533977509,9e-08,0.0,0.0,0.0,9e-08,0.0,0.0,0.0,9e-08
1560469599612814610,33293,1560469599609076032,base_link,-0.0022230621546,0.00162958554832,-0.598971180945,-0.800765781902,1.0,0.0,0.0,0.0,1.0,0.0,0.0,0.0,1.0,0.00133357662708,-0.00185789784882,-0.00140707276296,1.21846967915e-07,0.0,0.0,0.0,1.21846967915e-07,0.0,0.0,0.0,1.21846967915e-07,0.0376519411802,-0.011720456183,9.77469158173,9e-08,0.0,0.0,0.0,9e-08,0.0,0.0,0.0,9e-08
1560469599632526315,33294,1560469599629076032,base_link,-0.0022232985515,0.0016291453319,-0.598962920162,-0.800772019636,1.0,0.0,0.0,0.0,1.0,0.0,0.0,0.0,1.0,0.000268907751888,0.00123000075109,-0.00119621923659,1.21846967915e-07,0.0,0.0,0.0,1.21846967915e-07,0.0,0.0,0.0,1.21846967915e-07,0.0542110651731,0.00100277364254,9.83939170837,9e-08,0.0,0.0,0.0,9e-08,0.0,0.0,0.0,9e-08
1560469599652153571,33295,1560469599649076032,base_link,-0.00221291410721,0.0016283552637,-0.598958210252,-0.800775633728,1.0,0.0,0.0,0.0,1.0,0.0,0.0,0.0,1.0,0.000485385477077,-0.000150217616465,-0.000978793483227,1.21846967915e-07,0.0,0.0,0.0,1.21846967915e-07,0.0,0.0,0.0,1.21846967915e-07,0.0556341707706,-0.0262367650866,9.80172252655,9e-08,0.0,0.0,0.0,9e-08,0.0,0.0,0.0,9e-08
1560469599672353644,33296,1560469599669076032,base_link,-0.00220848169108,0.00162313671007,-0.598949296194,-0.800782271856,1.0,0.0,0.0,0.0,1.0,0.0,0.0,0.0,1.0,0.000265142705757,0.00186735461466,-0.00151769001968,1.21846967915e-07,0.0,0.0,0.0,1.21846967915e-07,0.0,0.0,0.0,1.21846967915e-07,0.0522303134203,0.00162630528212,9.86937713623,9e-08,0.0,0.0,0.0,9e-08,0.0,0.0,0.0,9e-08
1560469599692179302,33297,1560469599689076032,base_link,-0.00219582006162,0.00162328368897,-0.598935682761,-0.800792513541,1.0,0.0,0.0,0.0,1.0,0.0,0.0,0.0,1.0,-0.000370160822058,0.00144637387712,-0.00161582464352,1.21846967915e-07,0.0,0.0,0.0,1.21846967915e-07,0.0,0.0,0.0,1.21846967915e-07,0.0327240675688,0.0333148650825,9.77515697479,9e-08,0.0,0.0,0.0,9e-08,0.0,0.0,0.0,9e-08
1560469599710910212,33298,1560469599705073984,base_link,-0.00219780843387,0.00162620575385,-0.59892444009,-0.800800890227,1.0,0.0,0.0,0.0,1.0,0.0,0.0,0.0,1.0,0.000775034190156,0.000158814887982,-0.0032232995145,1.21846967915e-07,0.0,0.0,0.0,1.21846967915e-07,0.0,0.0,0.0,1.21846967915e-07,0.0687033906579,0.00733418017626,9.82264518738,9e-08,0.0,0.0,0.0,9e-08,0.0,0.0,0.0,9e-08
1560469599732765362,33299,1560469599729073984,base_link,-0.00219274169532,0.00161973643898,-0.598910110161,-0.800811595526,1.0,0.0,0.0,0.0,1.0,0.0,0.0,0.0,1.0,-0.000488853023853,0.000799343688414,-0.0022495444864,1.21846967915e-07,0.0,0.0,0.0,1.21846967915e-07,0.0,0.0,0.0,1.21846967915e-07,0.0515406057239,0.0057186037302,9.78811359406,9e-08,0.0,0.0,0.0,9e-08,0.0,0.0,0.0,9e-08
1560469599753239598,33300,1560469599749073984,base_link,-0.0021973565077,0.00162408046608,-0.598908434824,-0.800812849395,1.0,0.0,0.0,0.0,1.0,0.0,0.0,0.0,1.0,-0.000359073630534,-0.00163970550057,-0.000431747175753,1.21846967915e-07,0.0,0.0,0.0,1.21846967915e-07,0.0,0.0,0.0,1.21846967915e-07,0.0780960023403,-0.00413430482149,9.81670951843,9e-08,0.0,0.0,0.0,9e-08,0.0,0.0,0.0,9e-08
1560469599772340041,33301,1560469599769073984,base_link,-0.00218964091792,0.00161963701934,-0.598901016979,-0.800818497073,1.0,0.0,0.0,0.0,1.0,0.0,0.0,0.0,1.0,-0.000905660679564,0.000696426082868,-0.00149961421266,1.21846967915e-07,0.0,0.0,0.0,1.21846967915e-07,0.0,0.0,0.0,1.21846967915e-07,0.0668451040983,0.00383920967579,9.79558753967,9e-08,0.0,0.0,0.0,9e-08,0.0,0.0,0.0,9e-08
1560469599790765782,33302,1560469599785073984,base_link,-0.00219074239535,0.00161838934503,-0.598893061761,-0.800824429242,1.0,0.0,0.0,0.0,1.0,0.0,0.0,0.0,1.0,0.000574775738642,-0.00154364586342,-0.00235930108465,1.21846967915e-07,0.0,0.0,0.0,1.21846967915e-07,0.0,0.0,0.0,1.21846967915e-07,0.051679700613,-0.0178125649691,9.83665847778,9e-08,0.0,0.0,0.0,9e-08,0.0,0.0,0.0,9e-08
1560469599812687596,33303,1560469599809071936,base_link,-0.00219696436502,0.00161479332158,-0.59888043878,-0.800833764769,1.0,0.0,0.0,0.0,1.0,0.0,0.0,0.0,1.0,-0.000159736766363,0.00208177696913,-0.00130126636941,1.21846967915e-07,0.0,0.0,0.0,1.21846967915e-07,0.0,0.0,0.0,1.21846967915e-07,0.048331387341,0.0257768556476,9.80299568176,9e-08,0.0,0.0,0.0,9e-08,0.0,0.0,0.0,9e-08
1560469599832408006,33304,1560469599829071936,base_link,-0.00218938970377,0.00160675257546,-0.59887595014,-0.800837241884,1.0,0.0,0.0,0.0,1.0,0.0,0.0,0.0,1.0,0.00112417875789,-0.00121585465968,-0.000877295737155,1.21846967915e-07,0.0,0.0,0.0,1.21846967915e-07,0.0,0.0,0.0,1.21846967915e-07,0.0439945310354,0.025233887136,9.79850959778,9e-08,0.0,0.0,0.0,9e-08,0.0,0.0,0.0,9e-08
1560469599850821776,33305,1560469599845071936,base_link,-0.00219390001337,0.0016156518784,-0.598873895482,-0.800838706487,1.0,0.0,0.0,0.0,1.0,0.0,0.0,0.0,1.0,5.03526534885e-05,-0.000365275249351,-0.00129716040101,1.21846967915e-07,0.0,0.0,0.0,1.21846967915e-07,0.0,0.0,0.0,1.21846967915e-07,0.0754002034664,0.00198332965374,9.80324554443,9e-08,0.0,0.0,0.0,9e-08,0.0,0.0,0.0,9e-08
1560469599872485061,33306,1560469599865071936,base_link,-0.00219406049243,0.00161914237009,-0.598864897129,-0.800845428909,1.0,0.0,0.0,0.0,1.0,0.0,0.0,0.0,1.0,0.000472795276437,-0.00207180017605,-0.00182265182957,1.21846967915e-07,0.0,0.0,0.0,1.21846967915e-07,0.0,0.0,0.0,1.21846967915e-07,0.0495805963874,0.0283396020532,9.75402164459,9e-08,0.0,0.0,0.0,9e-08,0.0,0.0,0.0,9e-08
1560469599893698449,33307,1560469599890071936,base_link,-0.00219730876322,0.00162342093376,-0.598852706153,-0.800854585312,1.0,0.0,0.0,0.0,1.0,0.0,0.0,0.0,1.0,-0.00100770767312,0.00143775809556,-0.00150432309601,1.21846967915e-07,0.0,0.0,0.0,1.21846967915e-07,0.0,0.0,0.0,1.21846967915e-07,0.060677729547,0.0258908681571,9.83419704437,9e-08,0.0,0.0,0.0,9e-08,0.0,0.0,0.0,9e-08
1560469599913140606,33308,1560469599910069888,base_link,-0.00219122119837,0.00162486740619,-0.598846742374,-0.800859031804,1.0,0.0,0.0,0.0,1.0,0.0,0.0,0.0,1.0,-0.00120610790327,-0.000674503622577,8.18120315671e-06,1.21846967915e-07,0.0,0.0,0.0,1.21846967915e-07,0.0,0.0,0.0,1.21846967915e-07,0.0657179877162,0.00112099945545,9.78151130676,9e-08,0.0,0.0,0.0,9e-08,0.0,0.0,0.0,9e-08
1560469599930894962,33309,1560469599926069888,base_link,-0.00219816783453,0.00162424148022,-0.598837596508,-0.800865817447,1.0,0.0,0.0,0.0,1.0,0.0,0.0,0.0,1.0,-0.000588843598962,-0.000794870196842,-0.0018152159173,1.21846967915e-07,0.0,0.0,0.0,1.21846967915e-07,0.0,0.0,0.0,1.21846967915e-07,0.0634397938848,0.0244078077376,9.83282375336,9e-08,0.0,0.0,0.0,9e-08,0.0,0.0,0.0,9e-08
1560469599953685742,33310,1560469599946069888,base_link,-0.00217921475895,0.0016241794124,-0.598827670925,-0.800873382806,1.0,0.0,0.0,0.0,1.0,0.0,0.0,0.0,1.0,-0.00163773668464,6.39403515379e-05,-0.000419968273491,1.21846967915e-07,0.0,0.0,0.0,1.21846967915e-07,0.0,0.0,0.0,1.21846967915e-07,0.057291790843,0.0129642523825,9.72818279266,9e-08,0.0,0.0,0.0,9e-08,0.0,0.0,0.0,9e-08
1560469599972590474,33311,1560469599970069888,base_link,-0.00218865271015,0.00163110530441,-0.59881874633,-0.800880031472,1.0,0.0,0.0,0.0,1.0,0.0,0.0,0.0,1.0,-0.000705463811755,-0.00186561071314,-0.00255501223728,1.21846967915e-07,0.0,0.0,0.0,1.21846967915e-07,0.0,0.0,0.0,1.21846967915e-07,0.061708971858,0.023376185447,9.81800174713,9e-08,0.0,0.0,0.0,9e-08,0.0,0.0,0.0,9e-08
1560469599990498469,33312,1560469599986069888,base_link,-0.00218053468794,0.00163136820772,-0.598807282387,-0.800888545135,1.0,0.0,0.0,0.0,1.0,0.0,0.0,0.0,1.0,-0.000386766914744,0.00154409185052,-0.00235960376449,1.21846967915e-07,0.0,0.0,0.0,1.21846967915e-07,0.0,0.0,0.0,1.21846967915e-07,0.0527275949717,0.0265284851193,9.77939033508,9e-08,0.0,0.0,0.0,9e-08,0.0,0.0,0.0,9e-08
1560469600011750832,33313,1560469600006067840,base_link,-0.00218429230175,0.00163709659828,-0.598799664345,-0.800894224423,1.0,0.0,0.0,0.0,1.0,0.0,0.0,0.0,1.0,-0.000572608667426,-0.00206440454349,-0.000317519181408,1.21846967915e-07,0.0,0.0,0.0,1.21846967915e-07,0.0,0.0,0.0,1.21846967915e-07,0.0364650934935,0.00415036082268,9.77489280701,9e-08,0.0,0.0,0.0,9e-08,0.0,0.0,0.0,9e-08
1560469600031311475,33314,1560469600026067840,base_link,-0.00217409535743,0.0016375813282,-0.598793668955,-0.800898702525,1.0,0.0,0.0,0.0,1.0,0.0,0.0,0.0,1.0,-0.00133573031053,0.00144731462933,-0.00160253490321,1.21846967915e-07,0.0,0.0,0.0,1.21846967915e-07,0.0,0.0,0.0,1.21846967915e-07,0.0722297281027,0.0399758517742,9.81674385071,9e-08,0.0,0.0,0.0,9e-08,0.0,0.0,0.0,9e-08
1560469600052138845,33315,1560469600046067840,base_link,-0.00218232516756,0.00164316383058,-0.598785165829,-0.800905014016,1.0,0.0,0.0,0.0,1.0,0.0,0.0,0.0,1.0,0.00197048974223,-0.00100796902552,-0.00141928647645,1.21846967915e-07,0.0,0.0,0.0,1.21846967915e-07,0.0,0.0,0.0,1.21846967915e-07,0.0165522769094,0.018482722342,9.79284381866,9e-08,0.0,0.0,0.0,9e-08,0.0,0.0,0.0,9e-08
1560469600073383414,33316,1560469600070067840,base_link,-0.00219041911174,0.00164438763265,-0.598774060134,-0.800913338019,1.0,0.0,0.0,0.0,1.0,0.0,0.0,0.0,1.0,0.00143983738963,0.000375052943127,-0.00099201942794,1.21846967915e-07,0.0,0.0,0.0,1.21846967915e-07,0.0,0.0,0.0,1.21846967915e-07,0.0502756237984,0.0203693509102,9.79317569733,9e-08,0.0,0.0,0.0,9e-08,0.0,0.0,0.0,9e-08
1560469600092180156,33317,1560469600086067840,base_link,-0.00219040717562,0.00163902650412,-0.598768191185,-0.800917773974,1.0,0.0,0.0,0.0,1.0,0.0,0.0,0.0,1.0,0.00217489083298,5.69872863707e-05,-0.00174549967051,1.21846967915e-07,0.0,0.0,0.0,1.21846967915e-07,0.0,0.0,0.0,1.21846967915e-07,0.0577786490321,0.00408887863159,9.77674674988,9e-08,0.0,0.0,0.0,9e-08,0.0,0.0,0.0,9e-08
1560469600112471255,33318,1560469600110065792,base_link,-0.00220088824073,0.00163312232334,-0.598754777951,-0.800927731167,1.0,0.0,0.0,0.0,1.0,0.0,0.0,0.0,1.0,0.0022052989807,0.00145738897845,0.000168826431036,1.21846967915e-07,0.0,0.0,0.0,1.21846967915e-07,0.0,0.0,0.0,1.21846967915e-07,0.0696456730366,0.00868437439203,9.84359931946,9e-08,0.0,0.0,0.0,9e-08,0.0,0.0,0.0,9e-08
1560469600132584537,33319,1560469600130065792,base_link,-0.00219762268315,0.00163156832294,-0.598745853356,-0.800934464126,1.0,0.0,0.0,0.0,1.0,0.0,0.0,0.0,1.0,-0.00113207485992,-0.000261158216745,-0.00201858580112,1.21846967915e-07,0.0,0.0,0.0,1.21846967915e-07,0.0,0.0,0.0,1.21846967915e-07,0.0298940911889,-0.011246368289,9.76495838165,9e-08,0.0,0.0,0.0,9e-08,0.0,0.0,0.0,9e-08
1560469600152917472,33320,1560469600146065792,base_link,-0.00219752661797,0.00163397719643,-0.598735306107,-0.800942398271,1.0,0.0,0.0,0.0,1.0,0.0,0.0,0.0,1.0,0.00102913950104,0.000917706405744,0.000284782610834,1.21846967915e-07,0.0,0.0,0.0,1.21846967915e-07,0.0,0.0,0.0,1.21846967915e-07,0.0627591982484,0.0112600177526,9.79609680176,9e-08,0.0,0.0,0.0,9e-08,0.0,0.0,0.0,9e-08
1560469600193203710,33321,1560469600190065792,base_link,-0.00219139649468,0.00163859530153,-0.59870965975,-0.800961554013,1.0,0.0,0.0,0.0,1.0,0.0,0.0,0.0,1.0,0.000366182764992,0.000375750940293,-0.00161731906701,1.21846967915e-07,0.0,0.0,0.0,1.21846967915e-07,0.0,0.0,0.0,1.21846967915e-07,0.0649269670248,0.0232292599976,9.81376361847,9e-08,0.0,0.0,0.0,9e-08,0.0,0.0,0.0,9e-08
1560469600213156376,33322,1560469600210060928,base_link,-0.00218832724511,0.00164536326633,-0.598701746679,-0.800967444035,1.0,0.0,0.0,0.0,1.0,0.0,0.0,0.0,1.0,-0.00166599452496,-0.000476402114145,-0.00232801726088,1.21846967915e-07,0.0,0.0,0.0,1.21846967915e-07,0.0,0.0,0.0,1.21846967915e-07,0.062898285687,0.0215542539954,9.77052402496,9e-08,0.0,0.0,0.0,9e-08,0.0,0.0,0.0,9e-08
1560469600231438095,33323,1560469600226060928,base_link,-0.00219066839141,0.00164486834956,-0.598692558666,-0.800974356119,1.0,0.0,0.0,0.0,1.0,0.0,0.0,0.0,1.0,6.13785523456e-05,0.000273356941761,-0.000967737927567,1.21846967915e-07,0.0,0.0,0.0,1.21846967915e-07,0.0,0.0,0.0,1.21846967915e-07,0.0558459311724,0.000677093863488,9.77023220062,9e-08,0.0,0.0,0.0,9e-08,0.0,0.0,0.0,9e-08
1560469600252482677,33324,1560469600250060928,base_link,-0.00218404734377,0.00165186114557,-0.598679872464,-0.800983754866,1.0,0.0,0.0,0.0,1.0,0.0,0.0,0.0,1.0,0.000607821100857,-0.000458913098555,8.89450311661e-05,1.21846967915e-07,0.0,0.0,0.0,1.21846967915e-07,0.0,0.0,0.0,1.21846967915e-07,0.0419667437673,-0.00641288608312,9.87749195099,9e-08,0.0,0.0,0.0,9e-08,0.0,0.0,0.0,9e-08
1560469600273899535,33325,1560469600270060928,base_link,-0.00218423893906,0.00165587962532,-0.598670589621,-0.800990761779,1.0,0.0,0.0,0.0,1.0,0.0,0.0,0.0,1.0,0.00165144330822,0.000276530248811,-0.00099268136546,1.21846967915e-07,0.0,0.0,0.0,1.21846967915e-07,0.0,0.0,0.0,1.21846967915e-07,0.0391692966223,0.0129094682634,9.84411525726,9e-08,0.0,0.0,0.0,9e-08,0.0,0.0,0.0,9e-08
1560469600291569475,33326,1560469600286060928,base_link,-0.00218320218421,0.00165865032786,-0.598664204373,-0.800995461153,1.0,0.0,0.0,0.0,1.0,0.0,0.0,0.0,1.0,-0.00153251131997,0.000172197411302,-0.00041564530693,1.21846967915e-07,0.0,0.0,0.0,1.21846967915e-07,0.0,0.0,0.0,1.21846967915e-07,0.0418263226748,0.011766910553,9.79829406738,9e-08,0.0,0.0,0.0,9e-08,0.0,0.0,0.0,9e-08
1560469600310728790,33327,1560469600306058880,base_link,-0.00217911640945,0.00164997087588,-0.598647809249,-0.80100781018,1.0,0.0,0.0,0.0,1.0,0.0,0.0,0.0,1.0,0.000867411028594,-0.000801531539764,-0.00374720757827,1.21846967915e-07,0.0,0.0,0.0,1.21846967915e-07,0.0,0.0,0.0,1.21846967915e-07,0.0652234330773,-0.0205247923732,9.80230903625,9e-08,0.0,0.0,0.0,9e-08,0.0,0.0,0.0,9e-08
1560469600330519157,33328,1560469600326058880,base_link,-0.00219246459214,0.0016523872609,-0.598638252452,-0.801014838167,1.0,0.0,0.0,0.0,1.0,0.0,0.0,0.0,1.0,0.00151982449461,-0.000587062851992,-0.00268728239462,1.21846967915e-07,0.0,0.0,0.0,1.21846967915e-07,0.0,0.0,0.0,1.21846967915e-07,0.0882933437824,-0.007254332304,9.78483772278,9e-08,0.0,0.0,0.0,9e-08,0.0,0.0,0.0,9e-08
1560469600354305496,33329,1560469600350058880,base_link,-0.00217746605575,0.00165106344238,-0.598624891901,-0.801024911263,1.0,0.0,0.0,0.0,1.0,0.0,0.0,0.0,1.0,-0.00144900812302,-0.000156404537847,-0.00201268657111,1.21846967915e-07,0.0,0.0,0.0,1.21846967915e-07,0.0,0.0,0.0,1.21846967915e-07,0.0428964197636,0.00621949136257,9.73805904388,9e-08,0.0,0.0,0.0,9e-08,0.0,0.0,0.0,9e-08
1560469600371682024,33330,1560469600367058880,base_link,-0.00217693405469,0.00165216804789,-0.598618706851,-0.801029494733,1.0,0.0,0.0,0.0,1.0,0.0,0.0,0.0,1.0,0.000167746897205,-0.000579782761633,-0.000436185393482,1.21846967915e-07,0.0,0.0,0.0,1.21846967915e-07,0.0,0.0,0.0,1.21846967915e-07,0.064435146749,0.00765824317932,9.85304450989,9e-08,0.0,0.0,0.0,9e-08,0.0,0.0,0.0,9e-08
1560469600393955289,33331,1560469600391058880,base_link,-0.00216495772311,0.00165125172437,-0.598603776329,-0.801040716332,1.0,0.0,0.0,0.0,1.0,0.0,0.0,0.0,1.0,-0.00208798935637,-0.00132827041671,-0.0019963493105,1.21846967915e-07,0.0,0.0,0.0,1.21846967915e-07,0.0,0.0,0.0,1.21846967915e-07,0.0245805978775,-0.0131621658802,9.75796031952,9e-08,0.0,0.0,0.0,9e-08,0.0,0.0,0.0,9e-08
1560469600411868466,33332,1560469600407057088,base_link,-0.00217005286138,0.00166854874572,-0.598595389107,-0.801046827625,1.0,0.0,0.0,0.0,1.0,0.0,0.0,0.0,1.0,-0.00155129900668,-0.0023898971267,-0.00157486344688,1.21846967915e-07,0.0,0.0,0.0,1.21846967915e-07,0.0,0.0,0.0,1.21846967915e-07,0.0655373111367,-0.00378584116697,9.82842826843,9e-08,0.0,0.0,0.0,9e-08,0.0,0.0,0.0,9e-08
1560469600433940041,33333,1560469600431057088,base_link,-0.00216164874275,0.00166538750571,-0.598593123713,-0.801048671549,1.0,0.0,0.0,0.0,1.0,0.0,0.0,0.0,1.0,0.00037502599298,0.00144422543235,-0.000660829478875,1.21846967915e-07,0.0,0.0,0.0,1.21846967915e-07,0.0,0.0,0.0,1.21846967915e-07,0.062279522419,0.0106228142977,9.76296901703,9e-08,0.0,0.0,0.0,9e-08,0.0,0.0,0.0,9e-08
1560469600451861580,33334,1560469600447057088,base_link,-0.00216694852373,0.00166873145067,-0.598582839882,-0.801056342276,1.0,0.0,0.0,0.0,1.0,0.0,0.0,0.0,1.0,0.000889680872206,-0.00143384735566,-0.00256330892444,1.21846967915e-07,0.0,0.0,0.0,1.21846967915e-07,0.0,0.0,0.0,1.21846967915e-07,0.0737535730004,0.0557943731546,9.80923557281,9e-08,0.0,0.0,0.0,9e-08,0.0,0.0,0.0,9e-08
1560469600474232342,33335,1560469600471057088,base_link,-0.00216440839409,0.0016524678297,-0.598575179693,-0.80106206371,1.0,0.0,0.0,0.0,1.0,0.0,0.0,0.0,1.0,0.000372888054699,-0.000683169113472,-0.000968969427049,1.21846967915e-07,0.0,0.0,0.0,1.21846967915e-07,0.0,0.0,0.0,1.21846967915e-07,0.0522905439138,0.00936360657215,9.79919719696,9e-08,0.0,0.0,0.0,9e-08,0.0,0.0,0.0,9e-08
1560469600490625911,33336,1560469600487057088,base_link,-0.00217197414441,0.00165274962501,-0.598568151706,-0.801067237236,1.0,0.0,0.0,0.0,1.0,0.0,0.0,0.0,1.0,-0.000475489970995,-0.000780952454079,-0.000636752927676,1.21846967915e-07,0.0,0.0,0.0,1.21846967915e-07,0.0,0.0,0.0,1.21846967915e-07,0.0284418091178,-0.0142445042729,9.82718753815,9e-08,0.0,0.0,0.0,9e-08,0.0,0.0,0.0,9e-08
1560469600512156100,33337,1560469600507055040,base_link,-0.00217217631757,0.0016516663193,-0.598558120756,-0.801074739375,1.0,0.0,0.0,0.0,1.0,0.0,0.0,0.0,1.0,-0.00187640753575,0.0017594358651,-0.00201499904506,1.21846967915e-07,0.0,0.0,0.0,1.21846967915e-07,0.0,0.0,0.0,1.21846967915e-07,0.0735552087426,-3.49655747402e-05,9.82225322723,9e-08,0.0,0.0,0.0,9e-08,0.0,0.0,0.0,9e-08
1560469600531465952,33338,1560469600527055040,base_link,-0.00217055526911,0.00165382342299,-0.598550018024,-0.801080819058,1.0,0.0,0.0,0.0,1.0,0.0,0.0,0.0,1.0,0.000251739838859,-0.000156099355081,-0.00203405879438,1.21846967915e-07,0.0,0.0,0.0,1.21846967915e-07,0.0,0.0,0.0,1.21846967915e-07,0.0407145693898,0.0268769934773,9.79932785034,9e-08,0.0,0.0,0.0,9e-08,0.0,0.0,0.0,9e-08
1560469600550844388,33339,1560469600547055040,base_link,-0.00217003859978,0.00166632626091,-0.598542073343,-0.80108674069,1.0,0.0,0.0,0.0,1.0,0.0,0.0,0.0,1.0,-0.00175617868081,-0.000150831619976,-0.000941246398725,1.21846967915e-07,0.0,0.0,0.0,1.21846967915e-07,0.0,0.0,0.0,1.21846967915e-07,0.0744672417641,0.0155993141234,9.82915592194,9e-08,0.0,0.0,0.0,9e-08,0.0,0.0,0.0,9e-08
1560469600570713918,33340,1560469600567055040,base_link,-0.00216473462057,0.00166561410676,-0.598534760865,-0.801092283001,1.0,0.0,0.0,0.0,1.0,0.0,0.0,0.0,1.0,0.000582146574743,-0.00217669596896,-0.000743197335396,1.21846967915e-07,0.0,0.0,0.0,1.21846967915e-07,0.0,0.0,0.0,1.21846967915e-07,0.0703912973404,0.0223498158157,9.84458637238,9e-08,0.0,0.0,0.0,9e-08,0.0,0.0,0.0,9e-08
1560469600590967825,33341,1560469600587055040,base_link,-0.00216579967226,0.00166438046768,-0.598532358495,-0.801094011021,1.0,0.0,0.0,0.0,1.0,0.0,0.0,0.0,1.0,-4.40256553702e-05,0.00293908338062,-0.000556138926186,1.21846967915e-07,0.0,0.0,0.0,1.21846967915e-07,0.0,0.0,0.0,1.21846967915e-07,0.0823973566294,0.0316811092198,9.81085014343,9e-08,0.0,0.0,0.0,9e-08,0.0,0.0,0.0,9e-08
1560469600613090943,33342,1560469600611052992,base_link,-0.0021627825506,0.00166171863078,-0.598523317996,-0.801100775591,1.0,0.0,0.0,0.0,1.0,0.0,0.0,0.0,1.0,0.000586000154726,-0.00174652657006,-0.000858098093886,1.21846967915e-07,0.0,0.0,0.0,1.21846967915e-07,0.0,0.0,0.0,1.21846967915e-07,0.0289774388075,-0.00790036469698,9.81022644043,9e-08,0.0,0.0,0.0,9e-08,0.0,0.0,0.0,9e-08
1560469600630426521,33343,1560469600627052992,base_link,-0.00216753964975,0.00166596712778,-0.598519229751,-0.801103768017,1.0,0.0,0.0,0.0,1.0,0.0,0.0,0.0,1.0,0.000791554455645,-0.00089769042097,-0.00139588792808,1.21846967915e-07,0.0,0.0,0.0,1.21846967915e-07,0.0,0.0,0.0,1.21846967915e-07,0.0504360795021,3.83704900754e-05,9.85054206848,9e-08,0.0,0.0,0.0,9e-08,0.0,0.0,0.0,9e-08
1560469600653131945,33344,1560469600651052992,base_link,-0.00216036497197,0.00166188398719,-0.598511769759,-0.801109457841,1.0,0.0,0.0,0.0,1.0,0.0,0.0,0.0,1.0,-0.00132507912349,-0.000788509845734,-0.000302385422401,1.21846967915e-07,0.0,0.0,0.0,1.21846967915e-07,0.0,0.0,0.0,1.21846967915e-07,0.0215317755938,0.0209614299238,9.75023078918,9e-08,0.0,0.0,0.0,9e-08,0.0,0.0,0.0,9e-08
1560469600671729377,33345,1560469600667052992,base_link,-0.00217012867632,0.00166716571994,-0.598502982141,-0.801115885236,1.0,0.0,0.0,0.0,1.0,0.0,0.0,0.0,1.0,0.00312195438892,-0.000782183371484,-0.00132937612943,1.21846967915e-07,0.0,0.0,0.0,1.21846967915e-07,0.0,0.0,0.0,1.21846967915e-07,0.0688734799623,0.0393167585135,9.84652519226,9e-08,0.0,0.0,0.0,9e-08,0.0,0.0,0.0,9e-08
1560469600693957768,33346,1560469600691052992,base_link,-0.00216488756754,0.00166965016141,-0.598494605455,-0.801122238873,1.0,0.0,0.0,0.0,1.0,0.0,0.0,0.0,1.0,-5.10675890837e-05,0.000383459904697,-0.000647583510727,1.21846967915e-07,0.0,0.0,0.0,1.21846967915e-07,0.0,0.0,0.0,1.21846967915e-07,0.0391347184777,0.0116239413619,9.78514099121,9e-08,0.0,0.0,0.0,9e-08,0.0,0.0,0.0,9e-08
1560469600711802552,33347,1560469600707050688,base_link,-0.00216516936285,0.0016785632938,-0.598488778653,-0.801126464095,1.0,0.0,0.0,0.0,1.0,0.0,0.0,0.0,1.0,0.000157503469381,-0.00174397451337,-0.000958180928137,1.21846967915e-07,0.0,0.0,0.0,1.21846967915e-07,0.0,0.0,0.0,1.21846967915e-07,0.0611808523536,0.0486900135875,9.87194061279,9e-08,0.0,0.0,0.0,9e-08,0.0,0.0,0.0,9e-08
1560469600733557595,33348,1560469600731050688,base_link,-0.0021549089513,0.00167287276954,-0.598476587677,-0.801135789085,1.0,0.0,0.0,0.0,1.0,0.0,0.0,0.0,1.0,0.00162898015697,0.00111408170778,-0.00247971503995,1.21846967915e-07,0.0,0.0,0.0,1.21846967915e-07,0.0,0.0,0.0,1.21846967915e-07,0.0409826412797,0.027288261801,9.78958892822,9e-08,0.0,0.0,0.0,9e-08,0.0,0.0,0.0,9e-08
1560469600754514110,33349,1560469600751050688,base_link,-0.00216139773439,0.00167932438603,-0.598469970622,-0.801140635973,1.0,0.0,0.0,0.0,1.0,0.0,0.0,0.0,1.0,-0.000372265698388,-0.00163868349046,-0.000843748450279,1.21846967915e-07,0.0,0.0,0.0,1.21846967915e-07,0.0,0.0,0.0,1.21846967915e-07,0.0722388774157,-0.0266529098153,9.83997058868,9e-08,0.0,0.0,0.0,9e-08,0.0,0.0,0.0,9e-08
1560469600773318942,33350,1560469600771050688,base_link,-0.00214939767463,0.00167591318722,-0.598464027916,-0.801145145685,1.0,0.0,0.0,0.0,1.0,0.0,0.0,0.0,1.0,-0.000594163197093,0.000591906660702,-0.00149107491598,1.21846967915e-07,0.0,0.0,0.0,1.21846967915e-07,0.0,0.0,0.0,1.21846967915e-07,0.0696937143803,-0.0107194706798,9.79251480103,9e-08,0.0,0.0,0.0,9e-08,0.0,0.0,0.0,9e-08
1560469600790319888,33351,1560469600787050688,base_link,-0.00215713765113,0.00166989629242,-0.598457568912,-0.801149918816,1.0,0.0,0.0,0.0,1.0,0.0,0.0,0.0,1.0,0.00334816030227,-0.000893378863111,-0.00100397202186,1.21846967915e-07,0.0,0.0,0.0,1.21846967915e-07,0.0,0.0,0.0,1.21846967915e-07,0.0846716463566,-0.00982098281383,9.77544116974,9e-08,0.0,0.0,0.0,9e-08,0.0,0.0,0.0,9e-08
1560469600811694016,33352,1560469600807048896,base_link,-0.00215346739737,0.00166691623447,-0.598452016065,-0.801154122964,1.0,0.0,0.0,0.0,1.0,0.0,0.0,0.0,1.0,-0.000478674744954,0.00144668004941,-0.000750687031541,1.21846967915e-07,0.0,0.0,0.0,1.21846967915e-07,0.0,0.0,0.0,1.21846967915e-07,0.0578370392323,-0.0292496830225,9.79566764832,9e-08,0.0,0.0,0.0,9e-08,0.0,0.0,0.0,9e-08
1560469600833379950,33353,1560469600831048896,base_link,-0.00215223859448,0.00166900410867,-0.598440994664,-0.801162362673,1.0,0.0,0.0,0.0,1.0,0.0,0.0,0.0,1.0,0.00249862996861,-0.00153382273857,-0.00098877470009,1.21846967915e-07,0.0,0.0,0.0,1.21846967915e-07,0.0,0.0,0.0,1.21846967915e-07,0.0605908185244,0.0085840895772,9.75272655487,9e-08,0.0,0.0,0.0,9e-08,0.0,0.0,0.0,9e-08
1560469600850760522,33354,1560469600848048896,base_link,-0.00215754434352,0.00166382282454,-0.598436000262,-0.801166092669,1.0,0.0,0.0,0.0,1.0,0.0,0.0,0.0,1.0,-0.00112390657887,0.00208307895809,-0.00127724767663,1.21846967915e-07,0.0,0.0,0.0,1.21846967915e-07,0.0,0.0,0.0,1.21846967915e-07,0.0881175622344,0.0393203161657,9.81642723083,9e-08,0.0,0.0,0.0,9e-08,0.0,0.0,0.0,9e-08
1560469600870649603,33355,1560469600868048896,base_link,-0.00215015740862,0.00166304841736,-0.59842940428,-0.801171002777,1.0,0.0,0.0,0.0,1.0,0.0,0.0,0.0,1.0,-0.000590441923123,-0.000681670033373,-0.00116077868734,1.21846967915e-07,0.0,0.0,0.0,1.21846967915e-07,0.0,0.0,0.0,1.21846967915e-07,0.065320417285,0.00258634984493,9.78753566742,9e-08,0.0,0.0,0.0,9e-08,0.0,0.0,0.0,9e-08
1560469600890697619,33356,1560469600888048896,base_link,-0.00215381685813,0.00165962736096,-0.598420995984,-0.801177219437,1.0,0.0,0.0,0.0,1.0,0.0,0.0,0.0,1.0,-0.0003680223017,0.00208371272311,-0.000433161971159,1.21846967915e-07,0.0,0.0,0.0,1.21846967915e-07,0.0,0.0,0.0,1.21846967915e-07,0.0523386746645,-0.0272426977754,9.81316757202,9e-08,0.0,0.0,0.0,9e-08,0.0,0.0,0.0,9e-08
1560469600910980589,33357,1560469600908046080,base_link,-0.00214685312039,0.00165398491045,-0.598418825421,-0.801178968531,1.0,0.0,0.0,0.0,1.0,0.0,0.0,0.0,1.0,-0.00017019144434,5.99478080403e-05,-0.00149192730896,1.21846967915e-07,0.0,0.0,0.0,1.21846967915e-07,0.0,0.0,0.0,1.21846967915e-07,0.0214225798845,0.00109307467938,9.78066825867,9e-08,0.0,0.0,0.0,9e-08,0.0,0.0,0.0,9e-08
1560469600930564954,33358,1560469600928046080,base_link,-0.00215168640491,0.00165816710025,-0.598411881728,-0.801184057763,1.0,0.0,0.0,0.0,1.0,0.0,0.0,0.0,1.0,-0.00176286557689,-0.000151726402692,-0.00125671224669,1.21846967915e-07,0.0,0.0,0.0,1.21846967915e-07,0.0,0.0,0.0,1.21846967915e-07,0.0841088443995,0.00959767401219,9.76562213898,9e-08,0.0,0.0,0.0,9e-08,0.0,0.0,0.0,9e-08
1560469600951763925,33359,1560469600948046080,base_link,-0.00214193150859,0.00165861939685,-0.598413072377,-0.801183288583,1.0,0.0,0.0,0.0,1.0,0.0,0.0,0.0,1.0,-0.00175010913517,-4.13906527683e-05,-0.000299183186144,1.21846967915e-07,0.0,0.0,0.0,1.21846967915e-07,0.0,0.0,0.0,1.21846967915e-07,0.0396749600768,-0.00424531847238,9.75734043121,9e-08,0.0,0.0,0.0,9e-08,0.0,0.0,0.0,9e-08
1560469600971066830,33360,1560469600968046080,base_link,-0.00215501324829,0.00166916590483,-0.598409911363,-0.801185438073,1.0,0.0,0.0,0.0,1.0,0.0,0.0,0.0,1.0,0.000345547130564,-0.00260985968634,-0.00276459846646,1.21846967915e-07,0.0,0.0,0.0,1.21846967915e-07,0.0,0.0,0.0,1.21846967915e-07,0.077047675848,0.000256814062597,9.80774307251,9e-08,0.0,0.0,0.0,9e-08,0.0,0.0,0.0,9e-08
1560469600991684683,33361,1560469600988046080,base_link,-0.00215182904153,0.00166394938856,-0.598404853741,-0.801189315583,1.0,0.0,0.0,0.0,1.0,0.0,0.0,0.0,1.0,-0.000593762262724,0.000485840602778,-0.00138152437285,1.21846967915e-07,0.0,0.0,0.0,1.21846967915e-07,0.0,0.0,0.0,1.21846967915e-07,0.0586846247315,-0.00568854808807,9.75241470337,9e-08,0.0,0.0,0.0,9e-08,0.0,0.0,0.0,9e-08
1560469601010670357,33362,1560469601008043520,base_link,-0.00215307710685,0.00166097000973,-0.598405791509,-0.801188546403,1.0,0.0,0.0,0.0,1.0,0.0,0.0,0.0,1.0,-0.00025096378522,-0.00120787555352,0.000431619933806,1.21846967915e-07,0.0,0.0,0.0,1.21846967915e-07,0.0,0.0,0.0,1.21846967915e-07,0.0435380041599,0.0213181525469,9.83127975464,9e-08,0.0,0.0,0.0,9e-08,0.0,0.0,0.0,9e-08
1560469601030569859,33363,1560469601028043520,base_link,-0.00214473834876,0.00165883165398,-0.598396656179,-0.801195405802,1.0,0.0,0.0,0.0,1.0,0.0,0.0,0.0,1.0,-0.00239894120023,0.000381201010896,-0.00104304158594,1.21846967915e-07,0.0,0.0,0.0,1.21846967915e-07,0.0,0.0,0.0,1.21846967915e-07,0.0470650792122,0.00580608844757,9.80788516998,9e-08,0.0,0.0,0.0,9e-08,0.0,0.0,0.0,9e-08
1560469601051074972,33364,1560469601048043520,base_link,-0.00214281743617,0.00165885497057,-0.598389765169,-0.801200610938,1.0,0.0,0.0,0.0,1.0,0.0,0.0,0.0,1.0,-0.000373857474187,-0.000368045177311,-0.00117928907275,1.21846967915e-07,0.0,0.0,0.0,1.21846967915e-07,0.0,0.0,0.0,1.21846967915e-07,0.0552870333195,0.0179160758853,9.78259754181,9e-08,0.0,0.0,0.0,9e-08,0.0,0.0,0.0,9e-08
1560469601071074152,33365,1560469601068043520,base_link,-0.0021394808381,0.00165490707856,-0.598376773403,-0.80121031525,1.0,0.0,0.0,0.0,1.0,0.0,0.0,0.0,1.0,-0.00102282210719,0.00133675173856,-0.00224777264521,1.21846967915e-07,0.0,0.0,0.0,1.21846967915e-07,0.0,0.0,0.0,1.21846967915e-07,0.0553470775485,0.00165112316609,9.82719707489,9e-08,0.0,0.0,0.0,9e-08,0.0,0.0,0.0,9e-08
1560469601091216065,33366,1560469601088043520,base_link,-0.00213976102821,0.00165755839933,-0.598365478048,-0.80121874462,1.0,0.0,0.0,0.0,1.0,0.0,0.0,0.0,1.0,0.000797545479145,-0.00164307875093,-0.000968633044977,1.21846967915e-07,0.0,0.0,0.0,1.21846967915e-07,0.0,0.0,0.0,1.21846967915e-07,0.0252841114998,0.0279895737767,9.77458953857,9e-08,0.0,0.0,0.0,9e-08,0.0,0.0,0.0,9e-08
1560469601110955765,33367,1560469601108041472,base_link,-0.00214379418115,0.00166269086885,-0.59835749122,-0.801224624105,1.0,0.0,0.0,0.0,1.0,0.0,0.0,0.0,1.0,-0.000808033393696,0.000809646211565,-0.00138366944157,1.21846967915e-07,0.0,0.0,0.0,1.21846967915e-07,0.0,0.0,0.0,1.21846967915e-07,0.0521532446146,0.0264421962202,9.83116531372,9e-08,0.0,0.0,0.0,9e-08,0.0,0.0,0.0,9e-08
1560469601130896845,33368,1560469601128041472,base_link,-0.00214202596857,0.00165354601112,-0.598352180717,-0.801228754496,1.0,0.0,0.0,0.0,1.0,0.0,0.0,0.0,1.0,0.000667877029628,0.000478060595924,-0.00246399408206,1.21846967915e-07,0.0,0.0,0.0,1.21846967915e-07,0.0,0.0,0.0,1.21846967915e-07,0.0414599627256,-0.00112617015839,9.74817848206,9e-08,0.0,0.0,0.0,9e-08,0.0,0.0,0.0,9e-08
1560469601152054730,33369,1560469601148041472,base_link,-0.00214561954305,0.00166511904593,-0.598344425697,-0.801234402174,1.0,0.0,0.0,0.0,1.0,0.0,0.0,0.0,1.0,0.000374844006728,0.00017138964904,-0.000541528570466,1.21846967915e-07,0.0,0.0,0.0,1.21846967915e-07,0.0,0.0,0.0,1.21846967915e-07,0.0583201125264,-0.0283442735672,9.83083534241,9e-08,0.0,0.0,0.0,9e-08,0.0,0.0,0.0,9e-08
1560469601170406254,33370,1560469601168041472,base_link,-0.00214475119038,0.0016561671829,-0.598334415821,-0.801241883239,1.0,0.0,0.0,0.0,1.0,0.0,0.0,0.0,1.0,0.000467550649773,0.000274648977211,-0.00192523316946,1.21846967915e-07,0.0,0.0,0.0,1.21846967915e-07,0.0,0.0,0.0,1.21846967915e-07,0.0503253638744,0.0121502578259,9.76931190491,9e-08,0.0,0.0,0.0,9e-08,0.0,0.0,0.0,9e-08
1560469601191111689,33371,1560469601188041472,base_link,-0.00215407354643,0.00165263277452,-0.598325069757,-0.80124886908,1.0,0.0,0.0,0.0,1.0,0.0,0.0,0.0,1.0,0.000487359968247,0.00102483388036,-0.000449296785519,1.21846967915e-07,0.0,0.0,0.0,1.21846967915e-07,0.0,0.0,0.0,1.21846967915e-07,0.0501710176468,0.00949162989855,9.8323097229,9e-08,0.0,0.0,0.0,9e-08,0.0,0.0,0.0,9e-08
