%time,field.header.seq,field.header.stamp,field.header.frame_id,field.orientation.x,field.orientation.y,field.orientation.z,field.orientation.w,field.orientation_covariance0,field.orientation_covariance1,field.orientation_covariance2,field.orientation_covariance3,field.orientation_covariance4,field.orientation_covariance5,field.orientation_covariance6,field.orientation_covariance7,field.orientation_covariance8,field.angular_velocity.x,field.angular_velocity.y,field.angular_velocity.z,field.angular_velocity_covariance0,field.angular_velocity_covariance1,field.angular_velocity_covariance2,field.angular_velocity_covariance3,field.angular_velocity_covariance4,field.angular_velocity_covariance5,field.angular_velocity_covariance6,field.angular_velocity_covariance7,field.angular_velocity_covariance8,field.linear_acceleration.x,field.linear_acceleration.y,field.linear_acceleration.z,field.linear_acceleration_covariance0,field.linear_acceleration_covariance1,field.linear_acceleration_covariance2,field.linear_acceleration_covariance3,field.linear_acceleration_covariance4,field.linear_acceleration_covariance5,field.linear_acceleration_covariance6,field.linear_acceleration_covariance7,field.linear_acceleration_covariance8
1560469798853869199,43251,1560469798783501312,base_link,0.00118984422295,-0.000587151697872,-0.603542227937,-0.797330086715,1.0,0.0,0.0,0.0,1.0,0.0,0.0,0.0,1.0,0.00170681835152,-0.000913635652978,-4.57996866317e-05,1.21846967915e-07,0.0,0.0,0.0,1.21846967915e-07,0.0,0.0,0.0,1.21846967915e-07,-0.0147785395384,-0.0308859348297,9.77173614502,9e-08,0.0,0.0,0.0,9e-08,0.0,0.0,0.0,9e-08
1560469798853886023,43252,1560469798803501312,base_link,0.00118153810397,-0.000586431970464,-0.603533535149,-0.797336503573,1.0,0.0,0.0,0.0,1.0,0.0,0.0,0.0,1.0,0.000843059387989,0.000367336208001,-0.000464846205432,1.21846967915e-07,0.0,0.0,0.0,1.21846967915e-07,0.0,0.0,0.0,1.21846967915e-07,-0.0360191985965,0.00482833385468,9.86246204376,9e-08,0.0,0.0,0.0,9e-08,0.0,0.0,0.0,9e-08
1560469798853936331,43253,1560469798824499520,base_link,0.00118719279929,-0.000593016818737,-0.603536295768,-0.797334501598,1.0,0.0,0.0,0.0,1.0,0.0,0.0,0.0,1.0,-0.00021690397989,0.0016469649272,0.000870099349413,1.21846967915e-07,0.0,0.0,0.0,1.21846967915e-07,0.0,0.0,0.0,1.21846967915e-07,-0.0287515856326,-0.0330553203821,9.79366588593,9e-08,0.0,0.0,0.0,9e-08,0.0,0.0,0.0,9e-08
1560469798853977027,43254,1560469798844499520,base_link,0.00118620959234,-0.000591103088397,-0.603536875287,-0.797334090666,1.0,0.0,0.0,0.0,1.0,0.0,0.0,0.0,1.0,9.0105131676e-06,0.000897886871826,7.75528751547e-05,1.21846967915e-07,0.0,0.0,0.0,1.21846967915e-07,0.0,0.0,0.0,1.21846967915e-07,-0.0116078592837,0.00961451977491,9.84976863861,9e-08,0.0,0.0,0.0,9e-08,0.0,0.0,0.0,9e-08
1560469798867876063,43255,1560469798864499520,base_link,0.00119441271084,-0.000593293777862,-0.603532945093,-0.797337009335,1.0,0.0,0.0,0.0,1.0,0.0,0.0,0.0,1.0,-0.000207789751585,0.000898398226127,0.000181241557584,1.21846967915e-07,0.0,0.0,0.0,1.21846967915e-07,0.0,0.0,0.0,1.21846967915e-07,-0.0228532291949,0.0159564912319,9.81554508209,9e-08,0.0,0.0,0.0,9e-08,0.0,0.0,0.0,9e-08
1560469798887543159,43256,1560469798884499520,base_link,0.00119550428952,-0.000590000849527,-0.603531649078,-0.797337968176,1.0,0.0,0.0,0.0,1.0,0.0,0.0,0.0,1.0,-0.000850548618473,4.55371919088e-05,-0.000124485217384,1.21846967915e-07,0.0,0.0,0.0,1.21846967915e-07,0.0,0.0,0.0,1.21846967915e-07,-0.0511988699436,-0.0164489671588,9.79470539093,9e-08,0.0,0.0,0.0,9e-08,0.0,0.0,0.0,9e-08
1560469798905815768,43257,1560469798900499520,base_link,0.00119549611945,-0.000587132003276,-0.603531406733,-0.797338126227,1.0,0.0,0.0,0.0,1.0,0.0,0.0,0.0,1.0,-0.000417026283685,-0.000698220857885,0.000616807956249,1.21846967915e-07,0.0,0.0,0.0,1.21846967915e-07,0.0,0.0,0.0,1.21846967915e-07,0.0197940226644,-0.0151562318206,9.76024436951,9e-08,0.0,0.0,0.0,9e-08,0.0,0.0,0.0,9e-08
1560469798927166392,43258,1560469798924495424,base_link,0.00120153956182,-0.000591734097513,-0.603531628004,-0.797337989249,1.0,0.0,0.0,0.0,1.0,0.0,0.0,0.0,1.0,-0.00149100238923,0.00153496931307,-0.000230809062487,1.21846967915e-07,0.0,0.0,0.0,1.21846967915e-07,0.0,0.0,0.0,1.21846967915e-07,-0.00631557032466,-0.0126072838902,9.80294322968,9e-08,0.0,0.0,0.0,9e-08,0.0,0.0,0.0,9e-08
1560469798948983168,43259,1560469798944495424,base_link,0.00120742437729,-0.000595780791776,-0.603528445917,-0.797340412693,1.0,0.0,0.0,0.0,1.0,0.0,0.0,0.0,1.0,-0.000635127827991,-0.000272754288744,8.51595541462e-05,1.21846967915e-07,0.0,0.0,0.0,1.21846967915e-07,0.0,0.0,0.0,1.21846967915e-07,-0.0174366421998,-0.0334081873298,9.82778930664,9e-08,0.0,0.0,0.0,9e-08,0.0,0.0,0.0,9e-08
1560469798968124612,43260,1560469798964495424,base_link,0.00121447512522,-0.000595977984697,-0.603523251318,-0.797344342887,1.0,0.0,0.0,0.0,1.0,0.0,0.0,0.0,1.0,-0.000209926976822,0.000258153682807,0.000179582086275,1.21846967915e-07,0.0,0.0,0.0,1.21846967915e-07,0.0,0.0,0.0,1.21846967915e-07,-0.0148250646889,-0.00985812395811,9.79794406891,9e-08,0.0,0.0,0.0,9e-08,0.0,0.0,0.0,9e-08
1560469798987796971,43261,1560469798984495424,base_link,0.00121129919143,-0.000592148322008,-0.6035174772,-0.797348684012,1.0,0.0,0.0,0.0,1.0,0.0,0.0,0.0,1.0,0.000839686836116,-0.000486286007799,-0.000773647625465,1.21846967915e-07,0.0,0.0,0.0,1.21846967915e-07,0.0,0.0,0.0,1.21846967915e-07,0.016294060275,-0.00127576291561,9.7890625,9e-08,0.0,0.0,0.0,9e-08,0.0,0.0,0.0,9e-08
1560469799007513735,43262,1560469799000493632,base_link,0.00121261099151,-0.000593334216611,-0.603514864095,-0.797350622767,1.0,0.0,0.0,0.0,1.0,0.0,0.0,0.0,1.0,-0.001280403696,-0.00112321414053,-1.18030602607e-05,1.21846967915e-07,0.0,0.0,0.0,1.21846967915e-07,0.0,0.0,0.0,1.21846967915e-07,-0.0203328952193,-0.0318452343345,9.79048633575,9e-08,0.0,0.0,0.0,9e-08,0.0,0.0,0.0,9e-08
1560469799028822216,43263,1560469799025493632,base_link,0.00120138803485,-0.000588184275081,-0.603514579604,-0.797350822965,1.0,0.0,0.0,0.0,1.0,0.0,0.0,0.0,1.0,0.000851805729326,-0.0015497233253,-0.000135378941195,1.21846967915e-07,0.0,0.0,0.0,1.21846967915e-07,0.0,0.0,0.0,1.21846967915e-07,-0.0229057259858,-0.00882191210985,9.85134887695,9e-08,0.0,0.0,0.0,9e-08,0.0,0.0,0.0,9e-08
1560469799048758504,43264,1560469799045493632,base_link,0.00119709897563,-0.000586631221336,-0.603518393894,-0.797347935906,1.0,0.0,0.0,0.0,1.0,0.0,0.0,0.0,1.0,0.00118361029308,0.000157630187459,0.000807932112366,1.21846967915e-07,0.0,0.0,0.0,1.21846967915e-07,0.0,0.0,0.0,1.21846967915e-07,-0.047087341547,-0.00763671845198,9.79063606262,9e-08,0.0,0.0,0.0,9e-08,0.0,0.0,0.0,9e-08
1560469799066938528,43265,1560469799061493632,base_link,0.00119656446386,-0.000586843046293,-0.603518267453,-0.797348062346,1.0,0.0,0.0,0.0,1.0,0.0,0.0,0.0,1.0,-0.000619320315309,5.37835876457e-05,0.00125259964261,1.21846967915e-07,0.0,0.0,0.0,1.21846967915e-07,0.0,0.0,0.0,1.21846967915e-07,-0.0326360240579,-0.003138884902,9.83844852448,9e-08,0.0,0.0,0.0,9e-08,0.0,0.0,0.0,9e-08
1560469799088401742,43266,1560469799085493632,base_link,0.00120086062302,-0.000581891635353,-0.603519342198,-0.797347240483,1.0,0.0,0.0,0.0,1.0,0.0,0.0,0.0,1.0,0.000323344749631,-0.0010093372548,-3.59916375601e-05,1.21846967915e-07,0.0,0.0,0.0,1.21846967915e-07,0.0,0.0,0.0,1.21846967915e-07,-0.0217489115894,-0.0261775627732,9.79721736908,9e-08,0.0,0.0,0.0,9e-08,0.0,0.0,0.0,9e-08
1560469799106084618,43267,1560469799101491840,base_link,0.00119828038389,-0.000588180632507,-0.603519321124,-0.79734734585,1.0,0.0,0.0,0.0,1.0,0.0,0.0,0.0,1.0,-0.000293658929877,-0.000793884741142,0.00157492700964,1.21846967915e-07,0.0,0.0,0.0,1.21846967915e-07,0.0,0.0,0.0,1.21846967915e-07,-0.037946883589,-0.00284396111965,9.79882907867,9e-08,0.0,0.0,0.0,9e-08,0.0,0.0,0.0,9e-08
1560469799125879666,43268,1560469799121491840,base_link,0.00119779001519,-0.000589556249666,-0.603513936864,-0.79735138141,1.0,0.0,0.0,0.0,1.0,0.0,0.0,0.0,1.0,-0.000867386057507,-0.000486817792989,-0.00119137926959,1.21846967915e-07,0.0,0.0,0.0,1.21846967915e-07,0.0,0.0,0.0,1.21846967915e-07,-0.0012733489275,-0.00421836227178,9.80622577667,9e-08,0.0,0.0,0.0,9e-08,0.0,0.0,0.0,9e-08
1560469799149552648,43269,1560469799145491840,base_link,0.00119418857933,-0.000594575696485,-0.603515980987,-0.79734984305,1.0,0.0,0.0,0.0,1.0,0.0,0.0,0.0,1.0,4.14105306845e-06,4.82666946482e-05,0.000179882568773,1.21846967915e-07,0.0,0.0,0.0,1.21846967915e-07,0.0,0.0,0.0,1.21846967915e-07,-0.0332209728658,-0.0242808759212,9.79399585724,9e-08,0.0,0.0,0.0,9e-08,0.0,0.0,0.0,9e-08
1560469799168093850,43270,1560469799165491840,base_link,0.00119333434421,-0.000594409352259,-0.603512314211,-0.797352582596,1.0,0.0,0.0,0.0,1.0,0.0,0.0,0.0,1.0,-0.000628508976661,-0.00122684706002,0.000619872414973,1.21846967915e-07,0.0,0.0,0.0,1.21846967915e-07,0.0,0.0,0.0,1.21846967915e-07,-0.02050556615,-0.00609096139669,9.81873416901,9e-08,0.0,0.0,0.0,9e-08,0.0,0.0,0.0,9e-08
1560469799186911276,43271,1560469799181491840,base_link,0.00119014935543,-0.000598718970416,-0.603509153197,-0.797354984966,1.0,0.0,0.0,0.0,1.0,0.0,0.0,0.0,1.0,-0.000110309716547,0.00057758030016,-0.000460145587567,1.21846967915e-07,0.0,0.0,0.0,1.21846967915e-07,0.0,0.0,0.0,1.21846967915e-07,-0.0619594231248,-0.0176039785147,9.82117462158,9e-08,0.0,0.0,0.0,9e-08,0.0,0.0,0.0,9e-08
1560469799206940203,43272,1560469799203489792,base_link,0.00119383909799,-0.0006013237609,-0.603507804498,-0.79735599649,1.0,0.0,0.0,0.0,1.0,0.0,0.0,0.0,1.0,-0.000849901756737,5.14811254106e-05,-8.13993210613e-06,1.21846967915e-07,0.0,0.0,0.0,1.21846967915e-07,0.0,0.0,0.0,1.21846967915e-07,-0.0311538986862,-0.0214799046516,9.82751560211,9e-08,0.0,0.0,0.0,9e-08,0.0,0.0,0.0,9e-08
1560469799225609891,43273,1560469799223489792,base_link,0.001188472413,-0.000598989426414,-0.60350433792,-0.797358704425,1.0,0.0,0.0,0.0,1.0,0.0,0.0,0.0,1.0,0.000225293581025,0.000370961031877,0.000813542457763,1.21846967915e-07,0.0,0.0,0.0,1.21846967915e-07,0.0,0.0,0.0,1.21846967915e-07,-0.0215153992176,0.00348648428917,9.8536233902,9e-08,0.0,0.0,0.0,9e-08,0.0,0.0,0.0,9e-08
1560469799245867656,43274,1560469799243489792,base_link,0.00118508105284,-0.000595861854489,-0.603504970122,-0.797358156516,1.0,0.0,0.0,0.0,1.0,0.0,0.0,0.0,1.0,0.00063959317049,-0.000484562420752,-3.94913913624e-05,1.21846967915e-07,0.0,0.0,0.0,1.21846967915e-07,0.0,0.0,0.0,1.21846967915e-07,-0.031653881073,-0.00824580341577,9.77360248566,9e-08,0.0,0.0,0.0,9e-08,0.0,0.0,0.0,9e-08
1560469799266195980,43275,1560469799263489792,base_link,0.00119001871667,-0.000593100350992,-0.603503811084,-0.797359062674,1.0,0.0,0.0,0.0,1.0,0.0,0.0,0.0,1.0,0.000543918577023,0.000582683715038,0.000808774784673,1.21846967915e-07,0.0,0.0,0.0,1.21846967915e-07,0.0,0.0,0.0,1.21846967915e-07,-0.0468490161002,-0.0166617333889,9.81306648254,9e-08,0.0,0.0,0.0,9e-08,0.0,0.0,0.0,9e-08
1560469799286299232,43276,1560469799283489792,base_link,0.0011893331101,-0.000593793530826,-0.603501124223,-0.797361159479,1.0,0.0,0.0,0.0,1.0,0.0,0.0,0.0,1.0,0.000852818717249,-0.000378130789613,-0.000152482520207,1.21846967915e-07,0.0,0.0,0.0,1.21846967915e-07,0.0,0.0,0.0,1.21846967915e-07,-0.045065972954,-0.00251639634371,9.80729389191,9e-08,0.0,0.0,0.0,9e-08,0.0,0.0,0.0,9e-08
1560469799306135018,43277,1560469799303489792,base_link,0.00118463058782,-0.00060050971757,-0.603500017868,-0.797361928659,1.0,0.0,0.0,0.0,1.0,0.0,0.0,0.0,1.0,0.000624091771897,0.000574102334213,-0.00132535025477,1.21846967915e-07,0.0,0.0,0.0,1.21846967915e-07,0.0,0.0,0.0,1.21846967915e-07,-0.0549245104194,0.0208298265934,9.82059288025,9e-08,0.0,0.0,0.0,9e-08,0.0,0.0,0.0,9e-08
1560469799327063809,43278,1560469799323487744,base_link,0.00118456886985,-0.000597519904924,-0.603500892415,-0.7973612227,1.0,0.0,0.0,0.0,1.0,0.0,0.0,0.0,1.0,6.75266346661e-06,0.00110950577073,0.00071377272252,1.21846967915e-07,0.0,0.0,0.0,1.21846967915e-07,0.0,0.0,0.0,1.21846967915e-07,-0.0580035187304,-0.0371204614639,9.83319282532,9e-08,0.0,0.0,0.0,9e-08,0.0,0.0,0.0,9e-08
1560469799345909575,43279,1560469799343487744,base_link,0.00118057837825,-0.000594639472405,-0.603503284249,-0.797359505215,1.0,0.0,0.0,0.0,1.0,0.0,0.0,0.0,1.0,-9.66259249253e-05,-0.000160811498063,0.00071306573227,1.21846967915e-07,0.0,0.0,0.0,1.21846967915e-07,0.0,0.0,0.0,1.21846967915e-07,-0.0533657930791,-0.0304009914398,9.82378864288,9e-08,0.0,0.0,0.0,9e-08,0.0,0.0,0.0,9e-08
1560469799366955621,43280,1560469799363487744,base_link,0.00118565256658,-0.000594729590105,-0.603500007331,-0.797361939196,1.0,0.0,0.0,0.0,1.0,0.0,0.0,0.0,1.0,0.000306645786623,0.00260139117017,-0.00100904935971,1.21846967915e-07,0.0,0.0,0.0,1.21846967915e-07,0.0,0.0,0.0,1.21846967915e-07,-0.0213555544615,-0.00443346053362,9.79691886902,9e-08,0.0,0.0,0.0,9e-08,0.0,0.0,0.0,9e-08
1560469799386421027,43281,1560469799383487744,base_link,0.00118419582497,-0.000591750869818,-0.603493400813,-0.797366944134,1.0,0.0,0.0,0.0,1.0,0.0,0.0,0.0,1.0,6.54712493997e-06,0.000698298565112,0.00016317954578,1.21846967915e-07,0.0,0.0,0.0,1.21846967915e-07,0.0,0.0,0.0,1.21846967915e-07,-0.00462942197919,-0.0162315517664,9.84388923645,9e-08,0.0,0.0,0.0,9e-08,0.0,0.0,0.0,9e-08
1560469799406864076,43282,1560469799403485184,base_link,0.00118338211091,-0.000599482429296,-0.603488027089,-0.797370969158,1.0,0.0,0.0,0.0,1.0,0.0,0.0,0.0,1.0,0.00244358577766,0.000894672994036,-0.000497398432344,1.21846967915e-07,0.0,0.0,0.0,1.21846967915e-07,0.0,0.0,0.0,1.21846967915e-07,-0.0479590408504,0.00817254930735,9.77233695984,9e-08,0.0,0.0,0.0,9e-08,0.0,0.0,0.0,9e-08
1560469799426147689,43283,1560469799423485184,base_link,0.00118173965975,-0.000602277168711,-0.603485034663,-0.797373202941,1.0,0.0,0.0,0.0,1.0,0.0,0.0,0.0,1.0,-0.00064277171623,-5.5172276916e-05,-0.000132596702315,1.21846967915e-07,0.0,0.0,0.0,1.21846967915e-07,0.0,0.0,0.0,1.21846967915e-07,-0.0354881323874,-0.0106446519494,9.80689620972,9e-08,0.0,0.0,0.0,9e-08,0.0,0.0,0.0,9e-08
1560469799449142514,43284,1560469799445485184,base_link,0.00117703483257,-0.000599819501187,-0.603488395874,-0.797370684667,1.0,0.0,0.0,0.0,1.0,0.0,0.0,0.0,1.0,-0.000213440682273,-0.000375279050786,-0.000139945565024,1.21846967915e-07,0.0,0.0,0.0,1.21846967915e-07,0.0,0.0,0.0,1.21846967915e-07,-0.0349266566336,-0.043195463717,9.77888393402,9e-08,0.0,0.0,0.0,9e-08,0.0,0.0,0.0,9e-08
1560469799469419018,43285,1560469799465485184,base_link,0.00116726701231,-0.000601079420308,-0.603485856527,-0.797372718252,1.0,0.0,0.0,0.0,1.0,0.0,0.0,0.0,1.0,0.0023485517595,-0.000378992903279,-0.000389967986848,1.21846967915e-07,0.0,0.0,0.0,1.21846967915e-07,0.0,0.0,0.0,1.21846967915e-07,-0.0128405019641,0.0169601514936,9.85640716553,9e-08,0.0,0.0,0.0,9e-08,0.0,0.0,0.0,9e-08
1560469799486136334,43286,1560469799481485184,base_link,0.0011671171317,-0.000605763050587,-0.603485856527,-0.797372633959,1.0,0.0,0.0,0.0,1.0,0.0,0.0,0.0,1.0,-0.00170217547566,-0.000270853168331,-1.10919982035e-05,1.21846967915e-07,0.0,0.0,0.0,1.21846967915e-07,0.0,0.0,0.0,1.21846967915e-07,-0.021273098886,0.0119566470385,9.76907444,9e-08,0.0,0.0,0.0,9e-08,0.0,0.0,0.0,9e-08
1560469799508794660,43287,1560469799505483392,base_link,0.0011624664698,-0.000592807525061,-0.603484834466,-0.797373403139,1.0,0.0,0.0,0.0,1.0,0.0,0.0,0.0,1.0,0.000535776547622,-0.000810399651527,-0.000138606323162,1.21846967915e-07,0.0,0.0,0.0,1.21846967915e-07,0.0,0.0,0.0,1.21846967915e-07,-0.0154332071543,-0.00248904526234,9.82323455811,9e-08,0.0,0.0,0.0,9e-08,0.0,0.0,0.0,9e-08
1560469799527661417,43288,1560469799525483392,base_link,0.00116605969443,-0.000595086541808,-0.603482453169,-0.79737519438,1.0,0.0,0.0,0.0,1.0,0.0,0.0,0.0,1.0,0.00104993744753,0.000256043102127,-0.00111484143417,1.21846967915e-07,0.0,0.0,0.0,1.21846967915e-07,0.0,0.0,0.0,1.21846967915e-07,-0.0476065017283,-0.0544831678271,9.80022335052,9e-08,0.0,0.0,0.0,9e-08,0.0,0.0,0.0,9e-08
1560469799549869221,43289,1560469799545483392,base_link,0.00116517461062,-0.000593065797985,-0.603486214775,-0.797372444298,1.0,0.0,0.0,0.0,1.0,0.0,0.0,0.0,1.0,-0.000421739532612,-0.00101674778853,0.000506764103193,1.21846967915e-07,0.0,0.0,0.0,1.21846967915e-07,0.0,0.0,0.0,1.21846967915e-07,-0.00473757833242,-0.0413291677833,9.82783412933,9e-08,0.0,0.0,0.0,9e-08,0.0,0.0,0.0,9e-08
1560469799567778715,43290,1560469799561483392,base_link,0.00116538682658,-0.000592179890986,-0.603485972431,-0.797372602349,1.0,0.0,0.0,0.0,1.0,0.0,0.0,0.0,1.0,0.000204914380447,-0.000162335374625,0.000172698521055,1.21846967915e-07,0.0,0.0,0.0,1.21846967915e-07,0.0,0.0,0.0,1.21846967915e-07,-0.0414302274585,-0.0353663787246,9.82504367828,9e-08,0.0,0.0,0.0,9e-08,0.0,0.0,0.0,9e-08
1560469799588574664,43291,1560469799585483392,base_link,0.00116472887888,-0.000586065860876,-0.603480809442,-0.797376500932,1.0,0.0,0.0,0.0,1.0,0.0,0.0,0.0,1.0,-0.000333547737682,0.000681555829942,-0.00109958287794,1.21846967915e-07,0.0,0.0,0.0,1.21846967915e-07,0.0,0.0,0.0,1.21846967915e-07,-0.0236584618688,-0.0249228850007,9.80397033691,9e-08,0.0,0.0,0.0,9e-08,0.0,0.0,0.0,9e-08
1560469799608124455,43292,1560469799605481600,base_link,0.00116535892076,-0.000581510564458,-0.603475730746,-0.797380399516,1.0,0.0,0.0,0.0,1.0,0.0,0.0,0.0,1.0,0.000206977594644,-0.00102393119596,-0.000460423529148,1.21846967915e-07,0.0,0.0,0.0,1.21846967915e-07,0.0,0.0,0.0,1.21846967915e-07,-0.00739195942879,-0.0250492170453,9.81504058838,9e-08,0.0,0.0,0.0,9e-08,0.0,0.0,0.0,9e-08
1560469799629088237,43293,1560469799625481600,base_link,0.00116629300441,-0.00057582919809,-0.603467217083,-0.79738689013,1.0,0.0,0.0,0.0,1.0,0.0,0.0,0.0,1.0,-0.000230834746617,-0.00102317251731,-0.00121714989655,1.21846967915e-07,0.0,0.0,0.0,1.21846967915e-07,0.0,0.0,0.0,1.21846967915e-07,-0.0150243602693,-0.00916671007872,9.76603221893,9e-08,0.0,0.0,0.0,9e-08,0.0,0.0,0.0,9e-08
1560469799649709597,43294,1560469799645481600,base_link,0.00116270539798,-0.00058163461778,-0.603463855872,-0.797389408404,1.0,0.0,0.0,0.0,1.0,0.0,0.0,0.0,1.0,0.000739637180232,-0.000381039688364,-0.000679153483361,1.21846967915e-07,0.0,0.0,0.0,1.21846967915e-07,0.0,0.0,0.0,1.21846967915e-07,-0.00601532682776,-0.0186174735427,9.79605102539,9e-08,0.0,0.0,0.0,9e-08,0.0,0.0,0.0,9e-08
1560469799669314406,43295,1560469799665481600,base_link,0.00118217608954,-0.000583382065631,-0.603463402793,-0.797389692896,1.0,0.0,0.0,0.0,1.0,0.0,0.0,0.0,1.0,-0.000633980089333,0.00164569634944,0.000386913190596,1.21846967915e-07,0.0,0.0,0.0,1.21846967915e-07,0.0,0.0,0.0,1.21846967915e-07,0.00205312296748,0.00204023718834,9.82816886902,9e-08,0.0,0.0,0.0,9e-08,0.0,0.0,0.0,9e-08
1560469799688107224,43296,1560469799685481600,base_link,0.00118131644201,-0.000594891201043,-0.603460315536,-0.797391937215,1.0,0.0,0.0,0.0,1.0,0.0,0.0,0.0,1.0,0.000109657499706,0.000262412999291,0.000279374158708,1.21846967915e-07,0.0,0.0,0.0,1.21846967915e-07,0.0,0.0,0.0,1.21846967915e-07,-0.00683728605509,-0.00996125489473,9.80662918091,9e-08,0.0,0.0,0.0,9e-08,0.0,0.0,0.0,9e-08
1560469799706185763,43297,1560469799701479552,base_link,0.00118044605196,-0.000596123461295,-0.603461021496,-0.797391399843,1.0,0.0,0.0,0.0,1.0,0.0,0.0,0.0,1.0,8.97875906958e-06,-0.000587889400776,0.000708952429704,1.21846967915e-07,0.0,0.0,0.0,1.21846967915e-07,0.0,0.0,0.0,1.21846967915e-07,-0.0348049141467,-0.00942008197307,9.8163766861,9e-08,0.0,0.0,0.0,9e-08,0.0,0.0,0.0,9e-08
1560469799725981127,43298,1560469799721479552,base_link,0.00118108154741,-0.000593131199687,-0.603462496636,-0.797390346172,1.0,0.0,0.0,0.0,1.0,0.0,0.0,0.0,1.0,-0.000311246374622,0.000476148270536,0.000602898129728,1.21846967915e-07,0.0,0.0,0.0,1.21846967915e-07,0.0,0.0,0.0,1.21846967915e-07,-0.0314925722778,0.00531230121851,9.81623935699,9e-08,0.0,0.0,0.0,9e-08,0.0,0.0,0.0,9e-08
1560469799749785607,43299,1560469799745479552,base_link,0.00117970208188,-0.000595363644989,-0.60346187497,-0.79739079925,1.0,0.0,0.0,0.0,1.0,0.0,0.0,0.0,1.0,0.000515897234436,-0.000277541636024,-0.00121579493862,1.21846967915e-07,0.0,0.0,0.0,1.21846967915e-07,0.0,0.0,0.0,1.21846967915e-07,-0.0562140420079,0.000856235623361,9.78693580627,9e-08,0.0,0.0,0.0,9e-08,0.0,0.0,0.0,9e-08
1560469799768414136,43300,1560469799765479552,base_link,0.00117640505822,-0.000602325798107,-0.603463455477,-0.797389640212,1.0,0.0,0.0,0.0,1.0,0.0,0.0,0.0,1.0,-0.000315547193168,-0.000381233083317,0.000292205309961,1.21846967915e-07,0.0,0.0,0.0,1.21846967915e-07,0.0,0.0,0.0,1.21846967915e-07,-0.04099900648,-0.0268808975816,9.8516740799,9e-08,0.0,0.0,0.0,9e-08,0.0,0.0,0.0,9e-08
1560469799788785229,43301,1560469799785479552,base_link,0.00118354633545,-0.000598970657896,-0.603463192059,-0.797389735043,1.0,0.0,0.0,0.0,1.0,0.0,0.0,0.0,1.0,-0.000950282323174,0.000261205859715,0.000935214105994,1.21846967915e-07,0.0,0.0,0.0,1.21846967915e-07,0.0,0.0,0.0,1.21846967915e-07,-0.00746614485979,-0.0223105847836,9.79799461365,9e-08,0.0,0.0,0.0,9e-08,0.0,0.0,0.0,9e-08
1560469799807540055,43302,1560469799802477504,base_link,0.00118345679397,-0.000605929477132,-0.603463739968,-0.797389440015,1.0,0.0,0.0,0.0,1.0,0.0,0.0,0.0,1.0,0.00109999557026,0.0016438147286,-4.3133404688e-05,1.21846967915e-07,0.0,0.0,0.0,1.21846967915e-07,0.0,0.0,0.0,1.21846967915e-07,-0.00952108204365,0.0176185294986,9.84319782257,9e-08,0.0,0.0,0.0,9e-08,0.0,0.0,0.0,9e-08
1560469799827036483,43303,1560469799823477504,base_link,0.00118340168203,-0.000597931248287,-0.603469050471,-0.797385393917,1.0,0.0,0.0,0.0,1.0,0.0,0.0,0.0,1.0,-0.00010476634634,-0.00197224016301,-0.00036598026054,1.21846967915e-07,0.0,0.0,0.0,1.21846967915e-07,0.0,0.0,0.0,1.21846967915e-07,-0.0536228679121,-0.004020832479,9.83786392212,9e-08,0.0,0.0,0.0,9e-08,0.0,0.0,0.0,9e-08
1560469799846147862,43304,1560469799843477504,base_link,0.0011882675645,-0.000595656409182,-0.603463181522,-0.797389829873,1.0,0.0,0.0,0.0,1.0,0.0,0.0,0.0,1.0,-0.00118045730051,-0.000266023271251,8.74524412211e-05,1.21846967915e-07,0.0,0.0,0.0,1.21846967915e-07,0.0,0.0,0.0,1.21846967915e-07,-0.00343846157193,-0.0152686089277,9.86662197113,9e-08,0.0,0.0,0.0,9e-08,0.0,0.0,0.0,9e-08
1560469799866536356,43305,1560469799863477504,base_link,0.00119312346591,-0.000600947032282,-0.603463107765,-0.797389819336,1.0,0.0,0.0,0.0,1.0,0.0,0.0,0.0,1.0,0.000872053264175,-0.000476411398267,0.00165320723318,1.21846967915e-07,0.0,0.0,0.0,1.21846967915e-07,0.0,0.0,0.0,1.21846967915e-07,-0.0404933653772,-0.0250890702009,9.81086826324,9e-08,0.0,0.0,0.0,9e-08,0.0,0.0,0.0,9e-08
1560469799885595889,43306,1560469799883477504,base_link,0.00118869913753,-0.000599709194982,-0.6034679968,-0.797386110414,1.0,0.0,0.0,0.0,1.0,0.0,0.0,0.0,1.0,0.000544162583537,0.00176180608105,0.000791458005551,1.21846967915e-07,0.0,0.0,0.0,1.21846967915e-07,0.0,0.0,0.0,1.21846967915e-07,-0.0356786549091,-0.00696825236082,9.82346248627,9e-08,0.0,0.0,0.0,9e-08,0.0,0.0,0.0,9e-08
1560469799906171008,43307,1560469799903477504,base_link,0.00118949070803,-0.00059877109833,-0.603463423867,-0.797389587529,1.0,0.0,0.0,0.0,1.0,0.0,0.0,0.0,1.0,0.00211797608063,0.000576531747356,-0.000706796243321,1.21846967915e-07,0.0,0.0,0.0,1.21846967915e-07,0.0,0.0,0.0,1.21846967915e-07,-0.045376598835,-0.0147945508361,9.77784538269,9e-08,0.0,0.0,0.0,9e-08,0.0,0.0,0.0,9e-08
1560469799926119680,43308,1560469799923476480,base_link,0.0011921658393,-0.000592472819815,-0.60346725923,-0.79738676369,1.0,0.0,0.0,0.0,1.0,0.0,0.0,0.0,1.0,-0.000750252685975,0.000684634607751,-0.000347925815731,1.21846967915e-07,0.0,0.0,0.0,1.21846967915e-07,0.0,0.0,0.0,1.21846967915e-07,-0.0156904682517,-0.0228279158473,9.81906509399,9e-08,0.0,0.0,0.0,9e-08,0.0,0.0,0.0,9e-08
1560469799946762856,43309,1560469799943476480,base_link,0.00119360014924,-0.000593754018155,-0.603462823274,-0.797390019534,1.0,0.0,0.0,0.0,1.0,0.0,0.0,0.0,1.0,-0.000529626035132,0.000154329114594,0.000179219830898,1.21846967915e-07,0.0,0.0,0.0,1.21846967915e-07,0.0,0.0,0.0,1.21846967915e-07,-0.0116847828031,-0.0308871939778,9.79990196228,9e-08,0.0,0.0,0.0,9e-08,0.0,0.0,0.0,9e-08
1560469799966025344,43310,1560469799963476480,base_link,0.0011994150355,-0.000592306269793,-0.603467585868,-0.797386521345,1.0,0.0,0.0,0.0,1.0,0.0,0.0,0.0,1.0,0.000217169799726,-0.000375828938559,0.000388523330912,1.21846967915e-07,0.0,0.0,0.0,1.21846967915e-07,0.0,0.0,0.0,1.21846967915e-07,-0.0170409046113,-0.0281301662326,9.75981235504,9e-08,0.0,0.0,0.0,9e-08,0.0,0.0,0.0,9e-08
1560469799986325639,43311,1560469799983476480,base_link,0.00119516701184,-0.000587167729315,-0.603462907568,-0.797390019534,1.0,0.0,0.0,0.0,1.0,0.0,0.0,0.0,1.0,0.000865439826157,-0.000266061746515,0.00122655183077,1.21846967915e-07,0.0,0.0,0.0,1.21846967915e-07,0.0,0.0,0.0,1.21846967915e-07,-0.0123133547604,-0.00578754395246,9.81536006927,9e-08,0.0,0.0,0.0,9e-08,0.0,0.0,0.0,9e-08
1560469800006099868,43312,1560469800003474432,base_link,0.00120177931318,-0.000598887496072,-0.60345892469,-0.797392990887,1.0,0.0,0.0,0.0,1.0,0.0,0.0,0.0,1.0,0.00116685184184,0.00270588346757,-0.000281058455585,1.21846967915e-07,0.0,0.0,0.0,1.21846967915e-07,0.0,0.0,0.0,1.21846967915e-07,-0.0333918482065,-0.0416875705123,9.76942157745,9e-08,0.0,0.0,0.0,9e-08,0.0,0.0,0.0,9e-08
1560469800027070405,43313,1560469800023474432,base_link,0.00119209788574,-0.000599741463663,-0.603458050143,-0.797393696846,1.0,0.0,0.0,0.0,1.0,0.0,0.0,0.0,1.0,0.000839376938529,-0.00038252864033,-0.000900753482711,1.21846967915e-07,0.0,0.0,0.0,1.21846967915e-07,0.0,0.0,0.0,1.21846967915e-07,-0.0383953936398,-0.0585709810257,9.82063102722,9e-08,0.0,0.0,0.0,9e-08,0.0,0.0,0.0,9e-08
1560469800046074361,43314,1560469800043474432,base_link,0.00119104108644,-0.000594249861011,-0.6034564591,-0.797394950715,1.0,0.0,0.0,0.0,1.0,0.0,0.0,0.0,1.0,-0.00073512486415,-0.000373505870812,0.00114456762094,1.21846967915e-07,0.0,0.0,0.0,1.21846967915e-07,0.0,0.0,0.0,1.21846967915e-07,-0.0088826008141,-0.0253291130066,9.82022666931,9e-08,0.0,0.0,0.0,9e-08,0.0,0.0,0.0,9e-08
1560469800066867513,43315,1560469800063474432,base_link,0.00118454598543,-0.00059193314259,-0.603458450538,-0.797393465039,1.0,0.0,0.0,0.0,1.0,0.0,0.0,0.0,1.0,0.000532560225111,-0.000484541465994,0.000168477665284,1.21846967915e-07,0.0,0.0,0.0,1.21846967915e-07,0.0,0.0,0.0,1.21846967915e-07,-0.00874092057347,-0.0419504866004,9.80324268341,9e-08,0.0,0.0,0.0,9e-08,0.0,0.0,0.0,9e-08
1560469800086017042,43316,1560469800083474432,base_link,0.00118686099575,-0.000596342200969,-0.603461084716,-0.797391420916,1.0,0.0,0.0,0.0,1.0,0.0,0.0,0.0,1.0,-0.00127107114531,0.00164648680948,0.000711919274181,1.21846967915e-07,0.0,0.0,0.0,1.21846967915e-07,0.0,0.0,0.0,1.21846967915e-07,-0.00562434270978,-0.00829038023949,9.7859916687,9e-08,0.0,0.0,0.0,9e-08,0.0,0.0,0.0,9e-08
1560469800106131937,43317,1560469800103472640,base_link,0.00118701202882,-0.000600173386542,-0.603456332659,-0.797394908568,1.0,0.0,0.0,0.0,1.0,0.0,0.0,0.0,1.0,0.00138179631904,-0.00186483014841,5.23450544279e-05,1.21846967915e-07,0.0,0.0,0.0,1.21846967915e-07,0.0,0.0,0.0,1.21846967915e-07,-0.000680472701788,0.00183449685574,9.79616260529,9e-08,0.0,0.0,0.0,9e-08,0.0,0.0,0.0,9e-08
1560469800125818544,43318,1560469800123472640,base_link,0.00119145545499,-0.000603447608097,-0.603454225317,-0.797396510148,1.0,0.0,0.0,0.0,1.0,0.0,0.0,0.0,1.0,-0.000948050234001,-0.000165509409271,0.000611164432485,1.21846967915e-07,0.0,0.0,0.0,1.21846967915e-07,0.0,0.0,0.0,1.21846967915e-07,-0.0558435991406,0.00869881361723,9.77385902405,9e-08,0.0,0.0,0.0,9e-08,0.0,0.0,0.0,9e-08
1560469800147906080,43319,1560469800143472640,base_link,0.00118969691478,-0.000604476974901,-0.603452729104,-0.797397669187,1.0,0.0,0.0,0.0,1.0,0.0,0.0,0.0,1.0,0.00137353141326,-0.000489991158247,-0.00101508386433,1.21846967915e-07,0.0,0.0,0.0,1.21846967915e-07,0.0,0.0,0.0,1.21846967915e-07,-0.0609431229532,0.0022638887167,9.81932258606,9e-08,0.0,0.0,0.0,9e-08,0.0,0.0,0.0,9e-08
1560469800166804808,43320,1560469800164472640,base_link,0.00118762391956,-0.00060166126496,-0.603449894728,-0.797399913506,1.0,0.0,0.0,0.0,1.0,0.0,0.0,0.0,1.0,-0.00129912456032,0.000306402187562,0.000171309147845,1.21846967915e-07,0.0,0.0,0.0,1.21846967915e-07,0.0,0.0,0.0,1.21846967915e-07,-0.0478283949196,-0.0266094580293,9.82640266418,9e-08,0.0,0.0,0.0,9e-08,0.0,0.0,0.0,9e-08
1560469800186750624,43321,1560469800184472640,base_link,0.0011941008077,-0.000609700838052,-0.603447829533,-0.79740147294,1.0,0.0,0.0,0.0,1.0,0.0,0.0,0.0,1.0,0.000339362159139,0.000905929715373,0.00154610932805,1.21846967915e-07,0.0,0.0,0.0,1.21846967915e-07,0.0,0.0,0.0,1.21846967915e-07,-0.0633236840367,-0.0132051855326,9.77750110626,9e-08,0.0,0.0,0.0,9e-08,0.0,0.0,0.0,9e-08
1560469800207005063,43322,1560469800204469568,base_link,0.00119883502243,-0.000601852366344,-0.603451675433,-0.797398469977,1.0,0.0,0.0,0.0,1.0,0.0,0.0,0.0,1.0,-0.000732574902941,-0.000800744688604,0.000927794724703,1.21846967915e-07,0.0,0.0,0.0,1.21846967915e-07,0.0,0.0,0.0,1.21846967915e-07,-0.0413734912872,0.00518956780434,9.85471630096,9e-08,0.0,0.0,0.0,9e-08,0.0,0.0,0.0,9e-08
1560469800227152805,43323,1560469800224469568,base_link,0.00120120539165,-0.000601924703343,-0.603448356368,-0.797400946104,1.0,0.0,0.0,0.0,1.0,0.0,0.0,0.0,1.0,0.000642644939944,0.00100853631739,0.000267250288744,1.21846967915e-07,0.0,0.0,0.0,1.21846967915e-07,0.0,0.0,0.0,1.21846967915e-07,0.00834268331528,-0.0177305787802,9.82572937012,9e-08,0.0,0.0,0.0,9e-08,0.0,0.0,0.0,9e-08
1560469800247145408,43324,1560469800244469568,base_link,0.00121017089889,-0.000598564233037,-0.603439431773,-0.797407763357,1.0,0.0,0.0,0.0,1.0,0.0,0.0,0.0,1.0,-0.00192064419389,-0.000379733683076,-0.000227229233133,1.21846967915e-07,0.0,0.0,0.0,1.21846967915e-07,0.0,0.0,0.0,1.21846967915e-07,-0.0638825148344,-0.0173206552863,9.80871772766,9e-08,0.0,0.0,0.0,9e-08,0.0,0.0,0.0,9e-08
1560469800267740874,43325,1560469800264469568,base_link,0.00121849564234,-0.000597098066008,-0.60343879957,-0.797408226972,1.0,0.0,0.0,0.0,1.0,0.0,0.0,0.0,1.0,-0.00126474583521,-0.000380108307581,0.00104590819683,1.21846967915e-07,0.0,0.0,0.0,1.21846967915e-07,0.0,0.0,0.0,1.21846967915e-07,-0.0275566615164,0.0150395184755,9.81381893158,9e-08,0.0,0.0,0.0,9e-08,0.0,0.0,0.0,9e-08
1560469800286631323,43326,1560469800284469568,base_link,0.00122045512094,-0.000605296471803,-0.603439431773,-0.797407763357,1.0,0.0,0.0,0.0,1.0,0.0,0.0,0.0,1.0,-0.00191797607113,0.00111072603613,-2.04338830372e-05,1.21846967915e-07,0.0,0.0,0.0,1.21846967915e-07,0.0,0.0,0.0,1.21846967915e-07,-0.0383594073355,0.00594556331635,9.79653263092,9e-08,0.0,0.0,0.0,9e-08,0.0,0.0,0.0,9e-08
1560469800308049008,43327,1560469800304467008,base_link,0.00121891822212,-0.000607314437391,-0.603436112709,-0.797410155191,1.0,0.0,0.0,0.0,1.0,0.0,0.0,0.0,1.0,-0.00116409373004,0.000164636439877,0.00029167579487,1.21846967915e-07,0.0,0.0,0.0,1.21846967915e-07,0.0,0.0,0.0,1.21846967915e-07,-0.0162079595029,-0.00289743393659,9.84466171265,9e-08,0.0,0.0,0.0,9e-08,0.0,0.0,0.0,9e-08
1560469800327220219,43328,1560469800324467008,base_link,0.00121336486034,-0.000611055978593,-0.603435248698,-0.797410934907,1.0,0.0,0.0,0.0,1.0,0.0,0.0,0.0,1.0,0.0022380349692,0.0012196963653,0.000453498098068,1.21846967915e-07,0.0,0.0,0.0,1.21846967915e-07,0.0,0.0,0.0,1.21846967915e-07,-0.0150567628443,-0.0302623435855,9.79200553894,9e-08,0.0,0.0,0.0,9e-08,0.0,0.0,0.0,9e-08
1560469800348192455,43329,1560469800344467008,base_link,0.00120541855361,-0.000608716478649,-0.603438947084,-0.797408079458,1.0,0.0,0.0,0.0,1.0,0.0,0.0,0.0,1.0,0.00192786415573,0.000379698845791,0.000673631264362,1.21846967915e-07,0.0,0.0,0.0,1.21846967915e-07,0.0,0.0,0.0,1.21846967915e-07,-0.0101061053574,0.011235781014,9.8390827179,9e-08,0.0,0.0,0.0,9e-08,0.0,0.0,0.0,9e-08
1560469800367017128,43330,1560469800364467008,base_link,0.00121167427369,-0.000618278174473,-0.60344251903,-0.79740535045,1.0,0.0,0.0,0.0,1.0,0.0,0.0,0.0,1.0,0.000749741157051,0.00259801768698,0.00119911972433,1.21846967915e-07,0.0,0.0,0.0,1.21846967915e-07,0.0,0.0,0.0,1.21846967915e-07,-0.0252202451229,-0.0401750504971,9.83364391327,9e-08,0.0,0.0,0.0,9e-08,0.0,0.0,0.0,9e-08
1560469800387105031,43331,1560469800384467008,base_link,0.00120662087067,-0.000618681100815,-0.603436618471,-0.79740990231,1.0,0.0,0.0,0.0,1.0,0.0,0.0,0.0,1.0,0.00189988862257,0.000256825442193,-0.00081470888108,1.21846967915e-07,0.0,0.0,0.0,1.21846967915e-07,0.0,0.0,0.0,1.21846967915e-07,-0.0516758263111,-0.0392566919327,9.79780387878,9e-08,0.0,0.0,0.0,9e-08,0.0,0.0,0.0,9e-08
1560469800407182025,43332,1560469800404464704,base_link,0.00120451011204,-0.000620861006613,-0.603432498616,-0.79741301064,1.0,0.0,0.0,0.0,1.0,0.0,0.0,0.0,1.0,0.000314546196023,0.00111126457341,-0.000159261195222,1.21846967915e-07,0.0,0.0,0.0,1.21846967915e-07,0.0,0.0,0.0,1.21846967915e-07,-0.00987819954753,-0.0297369733453,9.82648849487,9e-08,0.0,0.0,0.0,9e-08,0.0,0.0,0.0,9e-08
1560469800427205375,43333,1560469800424464704,base_link,0.00120512321698,-0.000625315237029,-0.603429695851,-0.797415139055,1.0,0.0,0.0,0.0,1.0,0.0,0.0,0.0,1.0,0.000948915607296,-0.000486421544338,-0.000479292415548,1.21846967915e-07,0.0,0.0,0.0,1.21846967915e-07,0.0,0.0,0.0,1.21846967915e-07,-0.0147443264723,-0.00474335253239,9.78318691254,9e-08,0.0,0.0,0.0,9e-08,0.0,0.0,0.0,9e-08
1560469800446572795,43334,1560469800444464704,base_link,0.00120049618037,-0.000622551922535,-0.603429716924,-0.797415117982,1.0,0.0,0.0,0.0,1.0,0.0,0.0,0.0,1.0,-0.000523999158759,0.000477577414131,0.000812579412013,1.21846967915e-07,0.0,0.0,0.0,1.21846967915e-07,0.0,0.0,0.0,1.21846967915e-07,-0.0209036692977,-0.0297614336014,9.82177257538,9e-08,0.0,0.0,0.0,9e-08,0.0,0.0,0.0,9e-08
1560469800466883097,43335,1560469800464464704,base_link,0.00120354421247,-0.000617187789404,-0.603429137405,-0.797415528914,1.0,0.0,0.0,0.0,1.0,0.0,0.0,0.0,1.0,0.000222181202844,0.00101036403794,0.000906162487809,1.21846967915e-07,0.0,0.0,0.0,1.21846967915e-07,0.0,0.0,0.0,1.21846967915e-07,-0.0348208062351,-0.0390104874969,9.77864074707,9e-08,0.0,0.0,0.0,9e-08,0.0,0.0,0.0,9e-08
1560469800486790103,43336,1560469800484464704,base_link,0.00120572249248,-0.000620442501578,-0.60342412193,-0.797419279983,1.0,0.0,0.0,0.0,1.0,0.0,0.0,0.0,1.0,0.00136006227694,0.000466200057417,-0.00155429693405,1.21846967915e-07,0.0,0.0,0.0,1.21846967915e-07,0.0,0.0,0.0,1.21846967915e-07,-0.0439542718232,-0.0265012457967,9.80847167969,9e-08,0.0,0.0,0.0,9e-08,0.0,0.0,0.0,9e-08
1560469800507379114,43337,1560469800504461376,base_link,0.00119784523003,-0.000613404060195,-0.603415207872,-0.797426002406,1.0,0.0,0.0,0.0,1.0,0.0,0.0,0.0,1.0,-0.000216441228986,-0.000484210788272,-3.90808127122e-05,1.21846967915e-07,0.0,0.0,0.0,1.21846967915e-07,0.0,0.0,0.0,1.21846967915e-07,-0.00103249773383,-0.00776820629835,9.84742164612,9e-08,0.0,0.0,0.0,9e-08,0.0,0.0,0.0,9e-08
1560469800527524677,43338,1560469800524461376,base_link,0.00120121502286,-0.000611274800585,-0.603414301715,-0.797426824269,1.0,0.0,0.0,0.0,1.0,0.0,0.0,0.0,1.0,-0.000554094091058,4.15082031395e-05,-0.00142098451033,1.21846967915e-07,0.0,0.0,0.0,1.21846967915e-07,0.0,0.0,0.0,1.21846967915e-07,-0.0389851257205,0.00685140490532,9.82394790649,9e-08,0.0,0.0,0.0,9e-08,0.0,0.0,0.0,9e-08
1560469800548450901,43339,1560469800544461376,base_link,0.00119326326256,-0.000605451126865,-0.6034124894,-0.797428130822,1.0,0.0,0.0,0.0,1.0,0.0,0.0,0.0,1.0,-0.000108593216282,-5.7967932662e-05,6.36189506622e-05,1.21846967915e-07,0.0,0.0,0.0,1.21846967915e-07,0.0,0.0,0.0,1.21846967915e-07,0.018562965095,-0.000313371419905,9.8168888092,9e-08,0.0,0.0,0.0,9e-08,0.0,0.0,0.0,9e-08
1560469800567001565,43340,1560469800564461376,base_link,0.00119966978933,-0.000604254510335,-0.603416019199,-0.79742544396,1.0,0.0,0.0,0.0,1.0,0.0,0.0,0.0,1.0,-0.00103998766281,-0.00122201407794,0.00189536029939,1.21846967915e-07,0.0,0.0,0.0,1.21846967915e-07,0.0,0.0,0.0,1.21846967915e-07,-0.0228930301964,0.0147041231394,9.78254413605,9e-08,0.0,0.0,0.0,9e-08,0.0,0.0,0.0,9e-08
1560469800588089107,43341,1560469800584461376,base_link,0.00120326505133,-0.000606218022524,-0.603414375472,-0.797426666219,1.0,0.0,0.0,0.0,1.0,0.0,0.0,0.0,1.0,0.000309906026814,0.000260795844952,-0.000476071145386,1.21846967915e-07,0.0,0.0,0.0,1.21846967915e-07,0.0,0.0,0.0,1.21846967915e-07,0.0122635141015,-0.027312323451,9.84140777588,9e-08,0.0,0.0,0.0,9e-08,0.0,0.0,0.0,9e-08
1560469800606829710,43342,1560469800604459072,base_link,0.00120649062291,-0.000599934664158,-0.60341172022,-0.797428731414,1.0,0.0,0.0,0.0,1.0,0.0,0.0,0.0,1.0,-0.00031473315903,5.12772239745e-05,0.000597503385507,1.21846967915e-07,0.0,0.0,0.0,1.21846967915e-07,0.0,0.0,0.0,1.21846967915e-07,-0.00453494116664,-0.00563480705023,9.79907989502,9e-08,0.0,0.0,0.0,9e-08,0.0,0.0,0.0,9e-08
1560469800628515539,43343,1560469800624459072,base_link,0.00121081450267,-0.000602123954215,-0.603407199971,-0.797432155846,1.0,0.0,0.0,0.0,1.0,0.0,0.0,0.0,1.0,0.000196154549485,-0.00134510209318,-0.00100238912273,1.21846967915e-07,0.0,0.0,0.0,1.21846967915e-07,0.0,0.0,0.0,1.21846967915e-07,0.00770111382008,-0.0263255685568,9.76322937012,9e-08,0.0,0.0,0.0,9e-08,0.0,0.0,0.0,9e-08
1560469800648262801,43344,1560469800644459072,base_link,0.00121159689471,-0.000602743603438,-0.603402005372,-0.797436086039,1.0,0.0,0.0,0.0,1.0,0.0,0.0,0.0,1.0,-0.000862815359142,-0.00133945164271,-0.000130172193167,1.21846967915e-07,0.0,0.0,0.0,1.21846967915e-07,0.0,0.0,0.0,1.21846967915e-07,0.000649891793728,-0.0267921462655,9.75284004211,9e-08,0.0,0.0,0.0,9e-08,0.0,0.0,0.0,9e-08
1560469800667717132,43345,1560469800664459072,base_link,0.00120912251662,-0.000599282519879,-0.603401478536,-0.797436444287,1.0,0.0,0.0,0.0,1.0,0.0,0.0,0.0,1.0,0.000329426460667,-0.0027158933226,0.00102556764614,1.21846967915e-07,0.0,0.0,0.0,1.21846967915e-07,0.0,0.0,0.0,1.21846967915e-07,-0.043150883168,-0.0521234050393,9.84029769897,9e-08,0.0,0.0,0.0,9e-08,0.0,0.0,0.0,9e-08
1560469800686283903,43346,1560469800680459072,base_link,0.00121040955954,-0.000599760870146,-0.603396589502,-0.797440237504,1.0,0.0,0.0,0.0,1.0,0.0,0.0,0.0,1.0,-0.00106839241926,0.00281527778134,-4.48891623819e-05,1.21846967915e-07,0.0,0.0,0.0,1.21846967915e-07,0.0,0.0,0.0,1.21846967915e-07,-0.0209436751902,-0.00317224860191,9.82008647919,9e-08,0.0,0.0,0.0,9e-08,0.0,0.0,0.0,9e-08
1560469800707562372,43347,1560469800704457024,base_link,0.00120949348297,-0.000587478068414,-0.603396473598,-0.797440269114,1.0,0.0,0.0,0.0,1.0,0.0,0.0,0.0,1.0,0.00127278710715,-0.00176009372808,-5.12862097821e-05,1.21846967915e-07,0.0,0.0,0.0,1.21846967915e-07,0.0,0.0,0.0,1.21846967915e-07,-0.028280466795,-0.0182728916407,9.83897686005,9e-08,0.0,0.0,0.0,9e-08,0.0,0.0,0.0,9e-08
1560469800727809027,43348,1560469800724457024,base_link,0.00121386912022,-0.00058701319773,-0.603396283937,-0.797440374481,1.0,0.0,0.0,0.0,1.0,0.0,0.0,0.0,1.0,-0.00161687715445,0.00228674034588,-0.0011161766015,1.21846967915e-07,0.0,0.0,0.0,1.21846967915e-07,0.0,0.0,0.0,1.21846967915e-07,-0.0197119601071,0.0162015110254,9.79342079163,9e-08,0.0,0.0,0.0,9e-08,0.0,0.0,0.0,9e-08
1560469800746029970,43349,1560469800740457024,base_link,0.00121823343873,-0.0005898158191,-0.603390267474,-0.797445042245,1.0,0.0,0.0,0.0,1.0,0.0,0.0,0.0,1.0,0.00010068793199,0.00079426728189,-0.000157777249115,1.21846967915e-07,0.0,0.0,0.0,1.21846967915e-07,0.0,0.0,0.0,1.21846967915e-07,-0.0311228595674,-0.0167071968317,9.77213859558,9e-08,0.0,0.0,0.0,9e-08,0.0,0.0,0.0,9e-08
1560469800767559728,43350,1560469800764457024,base_link,0.00122429760467,-0.000589865086461,-0.603387601686,-0.797446949389,1.0,0.0,0.0,0.0,1.0,0.0,0.0,0.0,1.0,5.8236582845e-06,0.00154292036314,0.000268292380497,1.21846967915e-07,0.0,0.0,0.0,1.21846967915e-07,0.0,0.0,0.0,1.21846967915e-07,-0.0325961224735,-0.00646460801363,9.82990646362,9e-08,0.0,0.0,0.0,9e-08,0.0,0.0,0.0,9e-08
1560469800786147829,43351,1560469800780457024,base_link,0.00122782087953,-0.000590677504009,-0.603389234876,-0.797445737668,1.0,0.0,0.0,0.0,1.0,0.0,0.0,0.0,1.0,0.00118008069694,-0.000585851084907,0.00110862869769,1.21846967915e-07,0.0,0.0,0.0,1.21846967915e-07,0.0,0.0,0.0,1.21846967915e-07,-0.0533086545765,-0.0107496827841,9.81901836395,9e-08,0.0,0.0,0.0,9e-08,0.0,0.0,0.0,9e-08
1560469800808179396,43352,1560469800804454464,base_link,0.00123352980187,-0.000586988666947,-0.603386442648,-0.797447771253,1.0,0.0,0.0,0.0,1.0,0.0,0.0,0.0,1.0,-0.00160132069141,0.000685006380081,-0.000347399938619,1.21846967915e-07,0.0,0.0,0.0,1.21846967915e-07,0.0,0.0,0.0,1.21846967915e-07,-0.0513870604336,0.01758505404,9.71479892731,9e-08,0.0,0.0,0.0,9e-08,0.0,0.0,0.0,9e-08
1560469800828206700,43353,1560469800824454464,base_link,0.00122970133279,-0.000579134391816,-0.603384198328,-0.79744950981,1.0,0.0,0.0,0.0,1.0,0.0,0.0,0.0,1.0,0.000424863770604,-0.00154641130939,0.000168453872902,1.21846967915e-07,0.0,0.0,0.0,1.21846967915e-07,0.0,0.0,0.0,1.21846967915e-07,-0.052415125072,-0.00676130503416,9.78593826294,9e-08,0.0,0.0,0.0,9e-08,0.0,0.0,0.0,9e-08
1560469800845868206,43354,1560469800840454464,base_link,0.00123575547651,-0.000581528550955,-0.603385736688,-0.797448224332,1.0,0.0,0.0,0.0,1.0,0.0,0.0,0.0,1.0,0.000107041007141,0.00260505196638,0.000365395157132,1.21846967915e-07,0.0,0.0,0.0,1.21846967915e-07,0.0,0.0,0.0,1.21846967915e-07,0.0131060257554,-0.00382327288389,9.80390167236,9e-08,0.0,0.0,0.0,9e-08,0.0,0.0,0.0,9e-08
1560469800868159698,43355,1560469800864454464,base_link,0.00123272750944,-0.000576851053371,-0.603392648771,-0.79744316671,1.0,0.0,0.0,0.0,1.0,0.0,0.0,0.0,1.0,-0.00137008808088,-5.24220813531e-05,0.00114169856533,1.21846967915e-07,0.0,0.0,0.0,1.21846967915e-07,0.0,0.0,0.0,1.21846967915e-07,-0.0436194688082,0.00834304094315,9.87233257294,9e-08,0.0,0.0,0.0,9e-08,0.0,0.0,0.0,9e-08
1560469800887720495,43356,1560469800884454464,base_link,0.00123619174166,-0.000576020340633,-0.603386432111,-0.79744778179,1.0,0.0,0.0,0.0,1.0,0.0,0.0,0.0,1.0,0.00063434796175,0.000157380854944,0.000266309652943,1.21846967915e-07,0.0,0.0,0.0,1.21846967915e-07,0.0,0.0,0.0,1.21846967915e-07,-0.0694107115269,-0.00264713913202,9.7515335083,9e-08,0.0,0.0,0.0,9e-08,0.0,0.0,0.0,9e-08
1560469800906253233,43357,1560469800900454464,base_link,0.00122853581191,-0.000566841403224,-0.603381774884,-0.797451343198,1.0,0.0,0.0,0.0,1.0,0.0,0.0,0.0,1.0,0.00115131831262,-0.00144579308107,-0.00112008943688,1.21846967915e-07,0.0,0.0,0.0,1.21846967915e-07,0.0,0.0,0.0,1.21846967915e-07,-0.0482885278761,-0.0174151360989,9.8450050354,9e-08,0.0,0.0,0.0,9e-08,0.0,0.0,0.0,9e-08
1560469800927646050,43358,1560469800924454208,base_link,0.00123186771785,-0.000571863299006,-0.603373788056,-0.797457391271,1.0,0.0,0.0,0.0,1.0,0.0,0.0,0.0,1.0,0.00149153650273,0.00164788705297,0.000456798850792,1.21846967915e-07,0.0,0.0,0.0,1.21846967915e-07,0.0,0.0,0.0,1.21846967915e-07,-0.0413070805371,-0.0431967675686,9.7251291275,9e-08,0.0,0.0,0.0,9e-08,0.0,0.0,0.0,9e-08
1560469800948641800,43359,1560469800944454208,base_link,0.00121978811825,-0.000563347906928,-0.603372460431,-0.797458466016,1.0,0.0,0.0,0.0,1.0,0.0,0.0,0.0,1.0,0.0022308321204,-0.000908238638658,3.35792719852e-05,1.21846967915e-07,0.0,0.0,0.0,1.21846967915e-07,0.0,0.0,0.0,1.21846967915e-07,-0.0413664765656,-0.0308106839657,9.82796382904,9e-08,0.0,0.0,0.0,9e-08,0.0,0.0,0.0,9e-08
1560469800968021894,43360,1560469800964454208,base_link,0.00121339035836,-0.000570827326177,-0.603372681702,-0.797458329039,1.0,0.0,0.0,0.0,1.0,0.0,0.0,0.0,1.0,0.00190652755555,0.00100432394538,-0.000186175180716,1.21846967915e-07,0.0,0.0,0.0,1.21846967915e-07,0.0,0.0,0.0,1.21846967915e-07,-0.0271468535066,0.00859590619803,9.82253170013,9e-08,0.0,0.0,0.0,9e-08,0.0,0.0,0.0,9e-08
1560469800985837922,43361,1560469800980454208,base_link,0.00121230030256,-0.000565542671137,-0.603372966193,-0.797458044547,1.0,0.0,0.0,0.0,1.0,0.0,0.0,0.0,1.0,0.00021309274598,-0.00122590176761,0.000381111050956,1.21846967915e-07,0.0,0.0,0.0,1.21846967915e-07,0.0,0.0,0.0,1.21846967915e-07,-0.0432419627905,-0.0133775025606,9.79446792603,9e-08,0.0,0.0,0.0,9e-08,0.0,0.0,0.0,9e-08
1560469801007501800,43362,1560469801004452160,base_link,0.0012101765171,-0.000575320554776,-0.603374378112,-0.797457054096,1.0,0.0,0.0,0.0,1.0,0.0,0.0,0.0,1.0,-0.000215261097765,0.000581738713663,6.02130203333e-05,1.21846967915e-07,0.0,0.0,0.0,1.21846967915e-07,0.0,0.0,0.0,1.21846967915e-07,-0.0133847557008,-0.0205494314432,9.78098392487,9e-08,0.0,0.0,0.0,9e-08,0.0,0.0,0.0,9e-08
1560469801026219956,43363,1560469801020452160,base_link,0.00121282483326,-0.00057065462288,-0.603372787069,-0.797458223671,1.0,0.0,0.0,0.0,1.0,0.0,0.0,0.0,1.0,-0.000951971160248,-0.00154277321417,0.00082422979176,1.21846967915e-07,0.0,0.0,0.0,1.21846967915e-07,0.0,0.0,0.0,1.21846967915e-07,0.00196251645684,0.020367346704,9.79161548615,9e-08,0.0,0.0,0.0,9e-08,0.0,0.0,0.0,9e-08
1560469801047979395,43364,1560469801044452160,base_link,0.00121765863227,-0.000573506038281,-0.603366749533,-0.797462743921,1.0,0.0,0.0,0.0,1.0,0.0,0.0,0.0,1.0,0.000734869157895,0.00111277366523,-0.000489145924803,1.21846967915e-07,0.0,0.0,0.0,1.21846967915e-07,0.0,0.0,0.0,1.21846967915e-07,-0.0330672077835,-0.0203855931759,9.80432224274,9e-08,0.0,0.0,0.0,9e-08,0.0,0.0,0.0,9e-08
1560469801068118733,43365,1560469801064452160,base_link,0.00120997776014,-0.000569116118853,-0.603367128854,-0.797462533187,1.0,0.0,0.0,0.0,1.0,0.0,0.0,0.0,1.0,-0.00063316518208,-0.000377958640456,0.000490100937895,1.21846967915e-07,0.0,0.0,0.0,1.21846967915e-07,0.0,0.0,0.0,1.21846967915e-07,0.0117042958736,-0.00651840865612,9.84264278412,9e-08,0.0,0.0,0.0,9e-08,0.0,0.0,0.0,9e-08
1560469801087463891,43366,1560469801084452160,base_link,0.00121496489712,-0.000577858482412,-0.603368245746,-0.797461669176,1.0,0.0,0.0,0.0,1.0,0.0,0.0,0.0,1.0,-0.000554718193598,0.000267221708782,-0.000679354649037,1.21846967915e-07,0.0,0.0,0.0,1.21846967915e-07,0.0,0.0,0.0,1.21846967915e-07,-0.0443024300039,-0.00463786721229,9.80249404907,9e-08,0.0,0.0,0.0,9e-08,0.0,0.0,0.0,9e-08
1560469801107642635,43367,1560469801104450112,base_link,0.00121398751417,-0.00057265377879,-0.603364305016,-0.797464598382,1.0,0.0,0.0,0.0,1.0,0.0,0.0,0.0,1.0,-0.000557024613954,-0.0004827620578,-0.00111244304571,1.21846967915e-07,0.0,0.0,0.0,1.21846967915e-07,0.0,0.0,0.0,1.21846967915e-07,-0.0404328256845,-0.0293655470014,9.82955360413,9e-08,0.0,0.0,0.0,9e-08,0.0,0.0,0.0,9e-08
1560469801127248225,43368,1560469801124450112,base_link,0.00122036928378,-0.00057892890535,-0.603359805839,-0.79746800174,1.0,0.0,0.0,0.0,1.0,0.0,0.0,0.0,1.0,0.000525255571119,0.000155168323545,-0.000163091128343,1.21846967915e-07,0.0,0.0,0.0,1.21846967915e-07,0.0,0.0,0.0,1.21846967915e-07,-0.0313715450466,-0.0192627683282,9.75690174103,9e-08,0.0,0.0,0.0,9e-08,0.0,0.0,0.0,9e-08
1560469801151235668,43369,1560469801146450112,base_link,0.00121229355248,-0.000577739080061,-0.603358794315,-0.797468844677,1.0,0.0,0.0,0.0,1.0,0.0,0.0,0.0,1.0,0.00117168959696,0.000265429116553,0.000466302764835,1.21846967915e-07,0.0,0.0,0.0,1.21846967915e-07,0.0,0.0,0.0,1.21846967915e-07,-0.0305164940655,0.0138566195965,9.82069015503,9e-08,0.0,0.0,0.0,9e-08,0.0,0.0,0.0,9e-08
1560469801165809349,43370,1560469801162450112,base_link,0.00121603130705,-0.000580138466396,-0.603356866097,-0.797470267133,1.0,0.0,0.0,0.0,1.0,0.0,0.0,0.0,1.0,-0.000427832448622,-0.0010152204195,0.000175285749719,1.21846967915e-07,0.0,0.0,0.0,1.21846967915e-07,0.0,0.0,0.0,1.21846967915e-07,0.00654944032431,-0.00662881880998,9.81417942047,9e-08,0.0,0.0,0.0,9e-08,0.0,0.0,0.0,9e-08
1560469801189158564,43371,1560469801186450112,base_link,0.00121275091164,-0.000587211419627,-0.603353694546,-0.797472595747,1.0,0.0,0.0,0.0,1.0,0.0,0.0,0.0,1.0,0.000841135159135,-0.00037842860911,-0.000484317046357,1.21846967915e-07,0.0,0.0,0.0,1.21846967915e-07,0.0,0.0,0.0,1.21846967915e-07,-0.0173293277621,-0.0433563217521,9.84793949127,9e-08,0.0,0.0,0.0,9e-08,0.0,0.0,0.0,9e-08
1560469801208762831,43372,1560469801206446272,base_link,0.00120108570118,-0.000586082592023,-0.603355622765,-0.797471173291,1.0,0.0,0.0,0.0,1.0,0.0,0.0,0.0,1.0,0.000203671079362,-0.000592345546465,-0.000264275004156,1.21846967915e-07,0.0,0.0,0.0,1.21846967915e-07,0.0,0.0,0.0,1.21846967915e-07,0.0248725265265,-0.0275206416845,9.82546138763,9e-08,0.0,0.0,0.0,9e-08,0.0,0.0,0.0,9e-08
1560469801229144727,43373,1560469801226446272,base_link,0.00120419643906,-0.000582864676023,-0.603354411043,-0.797472132131,1.0,0.0,0.0,0.0,1.0,0.0,0.0,0.0,1.0,-2.56102430285e-06,-6.19868224021e-05,-0.000476028915728,1.21846967915e-07,0.0,0.0,0.0,1.21846967915e-07,0.0,0.0,0.0,1.21846967915e-07,-0.0359427370131,0.00711192935705,9.80438899994,9e-08,0.0,0.0,0.0,9e-08,0.0,0.0,0.0,9e-08
1560469801249588324,43374,1560469801246446272,base_link,0.00121009580424,-0.00057825984471,-0.603349479862,-0.797475798907,1.0,0.0,0.0,0.0,1.0,0.0,0.0,0.0,1.0,-0.00204607192427,-0.0010227363091,-0.00055511307437,1.21846967915e-07,0.0,0.0,0.0,1.21846967915e-07,0.0,0.0,0.0,1.21846967915e-07,-0.0649975165725,-0.0303509905934,9.76466751099,9e-08,0.0,0.0,0.0,9e-08,0.0,0.0,0.0,9e-08
1560469801268971435,43375,1560469801266446272,base_link,0.00120286729045,-0.000576129453226,-0.603345707719,-0.797478728113,1.0,0.0,0.0,0.0,1.0,0.0,0.0,0.0,1.0,-0.000218999310164,-0.000696003728081,-4.40782932856e-05,1.21846967915e-07,0.0,0.0,0.0,1.21846967915e-07,0.0,0.0,0.0,1.21846967915e-07,-0.0438074208796,-0.0189672112465,9.89708995819,9e-08,0.0,0.0,0.0,9e-08,0.0,0.0,0.0,9e-08
1560469801288705036,43376,1560469801286446272,base_link,0.00122330435492,-0.000581438844845,-0.603347793988,-0.797477063313,1.0,0.0,0.0,0.0,1.0,0.0,0.0,0.0,1.0,-0.00192652258556,0.00260029989295,-0.000356737698894,1.21846967915e-07,0.0,0.0,0.0,1.21846967915e-07,0.0,0.0,0.0,1.21846967915e-07,-0.0601065084338,-0.0176512002945,9.76745510101,9e-08,0.0,0.0,0.0,9e-08,0.0,0.0,0.0,9e-08
1560469801308970584,43377,1560469801306444480,base_link,0.00120980730001,-0.000576281968019,-0.603342641535,-0.797480951359,1.0,0.0,0.0,0.0,1.0,0.0,0.0,0.0,1.0,0.000530316086952,-0.00218344060704,0.000272635748843,1.21846967915e-07,0.0,0.0,0.0,1.21846967915e-07,0.0,0.0,0.0,1.21846967915e-07,-0.0323196128011,-0.0347171649337,9.79683208466,9e-08,0.0,0.0,0.0,9e-08,0.0,0.0,0.0,9e-08
1560469801326873178,43378,1560469801322444480,base_link,0.00121097024845,-0.000583168244462,-0.603343895404,-0.797480118959,1.0,0.0,0.0,0.0,1.0,0.0,0.0,0.0,1.0,-0.000337073492119,0.00206713937223,-0.000696585455444,1.21846967915e-07,0.0,0.0,0.0,1.21846967915e-07,0.0,0.0,0.0,1.21846967915e-07,-0.0445692203939,-0.0429923683405,9.80987262726,9e-08,0.0,0.0,0.0,9e-08,0.0,0.0,0.0,9e-08
1560469801349980965,43379,1560469801346444480,base_link,0.00120842818433,-0.000579891573944,-0.603339248714,-0.797483585537,1.0,0.0,0.0,0.0,1.0,0.0,0.0,0.0,1.0,0.000839715008624,-0.000483302457724,-0.000379268545657,1.21846967915e-07,0.0,0.0,0.0,1.21846967915e-07,0.0,0.0,0.0,1.21846967915e-07,-0.025440402329,-0.00750780105591,9.78107261658,9e-08,0.0,0.0,0.0,9e-08,0.0,0.0,0.0,9e-08
1560469801365997749,43380,1560469801362444480,base_link,0.00121471281863,-0.000582877599959,-0.603337552303,-0.79748486048,1.0,0.0,0.0,0.0,1.0,0.0,0.0,0.0,1.0,-0.0015920791775,0.00112026953138,0.000603379565291,1.21846967915e-07,0.0,0.0,0.0,1.21846967915e-07,0.0,0.0,0.0,1.21846967915e-07,-0.0245997421443,-0.00639133155346,9.8051366806,9e-08,0.0,0.0,0.0,9e-08,0.0,0.0,0.0,9e-08
1560469801387004193,43381,1560469801382444480,base_link,0.00122230077424,-0.000576283388005,-0.603334170019,-0.797487399827,1.0,0.0,0.0,0.0,1.0,0.0,0.0,0.0,1.0,-0.000649454363156,0.00068937393371,6.31869334029e-05,1.21846967915e-07,0.0,0.0,0.0,1.21846967915e-07,0.0,0.0,0.0,1.21846967915e-07,-0.0281380563974,-0.0111691877246,9.90146827698,9e-08,0.0,0.0,0.0,9e-08,0.0,0.0,0.0,9e-08
1560469801406236792,43382,1560469801402442432,base_link,0.00122668030102,-0.000580649332298,-0.603330187142,-0.79749037118,1.0,0.0,0.0,0.0,1.0,0.0,0.0,0.0,1.0,0.000640019658022,0.00175306713209,0.000358110264642,1.21846967915e-07,0.0,0.0,0.0,1.21846967915e-07,0.0,0.0,0.0,1.21846967915e-07,-0.011514775455,-0.0195875540376,9.82488059998,9e-08,0.0,0.0,0.0,9e-08,0.0,0.0,0.0,9e-08
1560469801429524224,43383,1560469801426442432,base_link,0.00121860751259,-0.000583752579235,-0.603326899688,-0.797492984285,1.0,0.0,0.0,0.0,1.0,0.0,0.0,0.0,1.0,-0.000134007757879,4.32783272117e-05,-0.0015405396698,1.21846967915e-07,0.0,0.0,0.0,1.21846967915e-07,0.0,0.0,0.0,1.21846967915e-07,-0.0154096409678,-0.0137885957956,9.84082698822,9e-08,0.0,0.0,0.0,9e-08,0.0,0.0,0.0,9e-08
1560469801445905048,43384,1560469801442442432,base_link,0.00122244349319,-0.000585112020895,-0.603321209863,-0.797497241116,1.0,0.0,0.0,0.0,1.0,0.0,0.0,0.0,1.0,-2.14698557102e-05,0.000577353639528,-0.00111370231025,1.21846967915e-07,0.0,0.0,0.0,1.21846967915e-07,0.0,0.0,0.0,1.21846967915e-07,-0.0440618507564,-0.026831895113,9.80275821686,9e-08,0.0,0.0,0.0,9e-08,0.0,0.0,0.0,9e-08
1560469801467008492,43385,1560469801462442432,base_link,0.00121462712552,-0.000590979919995,-0.60331657371,-0.797500697158,1.0,0.0,0.0,0.0,1.0,0.0,0.0,0.0,1.0,0.00189992727246,-5.95212040935e-05,-0.00071520335041,1.21846967915e-07,0.0,0.0,0.0,1.21846967915e-07,0.0,0.0,0.0,1.21846967915e-07,0.000668544322252,-0.0186933204532,9.80635070801,9e-08,0.0,0.0,0.0,9e-08,0.0,0.0,0.0,9e-08
1560469801488580508,43386,1560469801486442432,base_link,0.00122760522678,-0.000595473333809,-0.603312000777,-0.797504174273,1.0,0.0,0.0,0.0,1.0,0.0,0.0,0.0,1.0,-0.000524032395333,-0.000265139853582,0.000912930932827,1.21846967915e-07,0.0,0.0,0.0,1.21846967915e-07,0.0,0.0,0.0,1.21846967915e-07,-0.0471812412143,-0.0360889360309,9.7561750412,9e-08,0.0,0.0,0.0,9e-08,0.0,0.0,0.0,9e-08
1560469801506490227,43387,1560469801503442432,base_link,0.00122018087831,-0.000583942960337,-0.60330974592,-0.797505923367,1.0,0.0,0.0,0.0,1.0,0.0,0.0,0.0,1.0,0.000307086709654,-0.00111919501796,-0.000477852619952,1.21846967915e-07,0.0,0.0,0.0,1.21846967915e-07,0.0,0.0,0.0,1.21846967915e-07,-0.0110459588468,-0.0114560872316,9.82044219971,9e-08,0.0,0.0,0.0,9e-08,0.0,0.0,0.0,9e-08
1560469801526297488,43388,1560469801523440128,base_link,0.0012233711766,-0.000590225989431,-0.603304488101,-0.797509748194,1.0,0.0,0.0,0.0,1.0,0.0,0.0,0.0,1.0,0.000409381202189,0.00281554320827,-0.000497184402775,1.21846967915e-07,0.0,0.0,0.0,1.21846967915e-07,0.0,0.0,0.0,1.21846967915e-07,-0.0255369208753,-0.0269850417972,9.76978588104,9e-08,0.0,0.0,0.0,9e-08,0.0,0.0,0.0,9e-08
1560469801545657741,43389,1560469801543440128,base_link,0.00122311076341,-0.00058761811202,-0.603296438053,-0.797515859487,1.0,0.0,0.0,0.0,1.0,0.0,0.0,0.0,1.0,0.000621485000011,0.00132424081676,-0.000600998173468,1.21846967915e-07,0.0,0.0,0.0,1.21846967915e-07,0.0,0.0,0.0,1.21846967915e-07,0.0062943585217,-0.00582917779684,9.79778957367,9e-08,0.0,0.0,0.0,9e-08,0.0,0.0,0.0,9e-08
1560469801566576023,43390,1560469801563440128,base_link,0.00121898979767,-0.000596070654257,-0.603297291526,-0.797515258894,1.0,0.0,0.0,0.0,1.0,0.0,0.0,0.0,1.0,0.000535349943675,0.000374858587747,0.000258460408077,1.21846967915e-07,0.0,0.0,0.0,1.21846967915e-07,0.0,0.0,0.0,1.21846967915e-07,-0.0362535528839,0.00782661139965,9.78656673431,9e-08,0.0,0.0,0.0,9e-08,0.0,0.0,0.0,9e-08
1560469801585981348,43391,1560469801583440128,base_link,0.00122555715336,-0.00059424053849,-0.603295795313,-0.797516333639,1.0,0.0,0.0,0.0,1.0,0.0,0.0,0.0,1.0,-0.00149154360406,0.000903404376004,0.000388975342503,1.21846967915e-07,0.0,0.0,0.0,1.21846967915e-07,0.0,0.0,0.0,1.21846967915e-07,0.00407211109996,-0.00153634697199,9.81115722656,9e-08,0.0,0.0,0.0,9e-08,0.0,0.0,0.0,9e-08
1560469801606953366,43392,1560469801603437568,base_link,0.00123156622794,-0.000589116877002,-0.603293013621,-0.797518440981,1.0,0.0,0.0,0.0,1.0,0.0,0.0,0.0,1.0,-0.00107576884329,-0.00155045243446,-0.000991042121314,1.21846967915e-07,0.0,0.0,0.0,1.21846967915e-07,0.0,0.0,0.0,1.21846967915e-07,-0.0162531994283,-0.0374064445496,9.79526615143,9e-08,0.0,0.0,0.0,9e-08,0.0,0.0,0.0,9e-08
1560469801626191548,43393,1560469801623437568,base_link,0.00122876661118,-0.000586204443336,-0.603292276051,-0.797519094257,1.0,0.0,0.0,0.0,1.0,0.0,0.0,0.0,1.0,-0.000105383558548,0.00111765461043,0.000686193234287,1.21846967915e-07,0.0,0.0,0.0,1.21846967915e-07,0.0,0.0,0.0,1.21846967915e-07,0.0113114304841,-0.0274660512805,9.85282230377,9e-08,0.0,0.0,0.0,9e-08,0.0,0.0,0.0,9e-08
1560469801646113894,43394,1560469801643437568,base_link,0.00123375687624,-0.000597089546088,-0.603290253003,-0.79752052725,1.0,0.0,0.0,0.0,1.0,0.0,0.0,0.0,1.0,0.000832577235997,-0.000591811258346,-0.00112369679846,1.21846967915e-07,0.0,0.0,0.0,1.21846967915e-07,0.0,0.0,0.0,1.21846967915e-07,-0.0241370685399,-0.0287783145905,9.76883888245,9e-08,0.0,0.0,0.0,9e-08,0.0,0.0,0.0,9e-08
1560469801665896468,43395,1560469801663437568,base_link,0.00121813087042,-0.000599850555676,-0.603289093964,-0.797521517701,1.0,0.0,0.0,0.0,1.0,0.0,0.0,0.0,1.0,0.00138020736631,-0.000481034279801,3.30878829118e-05,1.21846967915e-07,0.0,0.0,0.0,1.21846967915e-07,0.0,0.0,0.0,1.21846967915e-07,-0.0202356167138,-0.000370003283023,9.84119415283,9e-08,0.0,0.0,0.0,9e-08,0.0,0.0,0.0,9e-08
1560469801686415482,43396,1560469801683437568,base_link,0.00121858551308,-0.000609916655435,-0.6032857749,-0.797523993828,1.0,0.0,0.0,0.0,1.0,0.0,0.0,0.0,1.0,-0.000320532213664,0.000475404289318,0.000477051566122,1.21846967915e-07,0.0,0.0,0.0,1.21846967915e-07,0.0,0.0,0.0,1.21846967915e-07,-0.0273556262255,-0.0272110626101,9.80483341217,9e-08,0.0,0.0,0.0,9e-08,0.0,0.0,0.0,9e-08
1560469801706212194,43397,1560469801703437568,base_link,0.00120958197489,-0.000611601623877,-0.603278378128,-0.797529536139,1.0,0.0,0.0,0.0,1.0,0.0,0.0,0.0,1.0,0.00105565274134,-0.000590671901591,0.000157899936312,1.21846967915e-07,0.0,0.0,0.0,1.21846967915e-07,0.0,0.0,0.0,1.21846967915e-07,-0.0440293364227,-0.0543634593487,9.81313228607,9e-08,0.0,0.0,0.0,9e-08,0.0,0.0,0.0,9e-08
1560469801726567530,43398,1560469801723435776,base_link,0.00120891079456,-0.000623332071402,-0.603273225676,-0.797533424186,1.0,0.0,0.0,0.0,1.0,0.0,0.0,0.0,1.0,0.00211688573472,0.00111103628296,-0.000191008395632,1.21846967915e-07,0.0,0.0,0.0,1.21846967915e-07,0.0,0.0,0.0,1.21846967915e-07,-0.027899172157,-0.0130501240492,9.80930137634,9e-08,0.0,0.0,0.0,9e-08,0.0,0.0,0.0,9e-08
1560469801745626669,43399,1560469801743435776,base_link,0.00120963533757,-0.000623650498251,-0.603274216127,-0.797532686616,1.0,0.0,0.0,0.0,1.0,0.0,0.0,0.0,1.0,-0.000637658173218,5.36102452315e-05,0.000593424250837,1.21846967915e-07,0.0,0.0,0.0,1.21846967915e-07,0.0,0.0,0.0,1.21846967915e-07,-0.00286572799087,-0.0235407501459,9.79147052765,9e-08,0.0,0.0,0.0,9e-08,0.0,0.0,0.0,9e-08
1560469801766303212,43400,1560469801763435776,base_link,0.0012152358676,-0.000626170315914,-0.60327651313,-0.797530979669,1.0,0.0,0.0,0.0,1.0,0.0,0.0,0.0,1.0,-0.000760624126997,-0.000376495620003,-0.00046723059495,1.21846967915e-07,0.0,0.0,0.0,1.21846967915e-07,0.0,0.0,0.0,1.21846967915e-07,-0.0253526866436,-0.0269163772464,9.78526592255,9e-08,0.0,0.0,0.0,9e-08,0.0,0.0,0.0,9e-08
1560469801786154826,43401,1560469801783435776,base_link,0.00122138128147,-0.000627981930696,-0.603276123272,-0.79753120094,1.0,0.0,0.0,0.0,1.0,0.0,0.0,0.0,1.0,-0.000426003360189,-0.000373394577764,0.000487460929435,1.21846967915e-07,0.0,0.0,0.0,1.21846967915e-07,0.0,0.0,0.0,1.21846967915e-07,-0.0120883844793,-0.0207402035594,9.77613735199,9e-08,0.0,0.0,0.0,9e-08,0.0,0.0,0.0,9e-08
1560469801807255943,43402,1560469801803433216,base_link,0.00122122907538,-0.000627048526174,-0.603274279347,-0.797532623396,1.0,0.0,0.0,0.0,1.0,0.0,0.0,0.0,1.0,-0.000654315401334,-0.00101583567448,-0.000572451681364,1.21846967915e-07,0.0,0.0,0.0,1.21846967915e-07,0.0,0.0,0.0,1.21846967915e-07,-0.0452902540565,-0.0290926098824,9.82566833496,9e-08,0.0,0.0,0.0,9e-08,0.0,0.0,0.0,9e-08
1560469801826198212,43403,1560469801823433216,base_link,0.00121996464934,-0.000625439228612,-0.603277872366,-0.797529873314,1.0,0.0,0.0,0.0,1.0,0.0,0.0,0.0,1.0,-0.000854347075801,0.000162997690495,0.000487708748551,1.21846967915e-07,0.0,0.0,0.0,1.21846967915e-07,0.0,0.0,0.0,1.21846967915e-07,-0.04948906973,-0.0134879946709,9.79684638977,9e-08,0.0,0.0,0.0,9e-08,0.0,0.0,0.0,9e-08
1560469801847840770,43404,1560469801843433216,base_link,0.00121877655273,-0.000631761338207,-0.603282002757,-0.797526838741,1.0,0.0,0.0,0.0,1.0,0.0,0.0,0.0,1.0,0.000311418058118,-0.000583874701988,0.000160362294992,1.21846967915e-07,0.0,0.0,0.0,1.21846967915e-07,0.0,0.0,0.0,1.21846967915e-07,-0.0462201759219,-0.0154451429844,9.80146980286,9e-08,0.0,0.0,0.0,9e-08,0.0,0.0,0.0,9e-08
1560469801866312833,43405,1560469801863433216,base_link,0.00121304569263,-0.000631578303993,-0.603280791035,-0.797527713288,1.0,0.0,0.0,0.0,1.0,0.0,0.0,0.0,1.0,0.000936753116548,4.45119512733e-05,-0.00102470873389,1.21846967915e-07,0.0,0.0,0.0,1.21846967915e-07,0.0,0.0,0.0,1.21846967915e-07,-0.0354500226676,-0.00420933961868,9.85126781464,9e-08,0.0,0.0,0.0,9e-08,0.0,0.0,0.0,9e-08
1560469801886409898,43406,1560469801883433216,base_link,0.00122264543998,-0.000632414346825,-0.603283983659,-0.797525279307,1.0,0.0,0.0,0.0,1.0,0.0,0.0,0.0,1.0,-0.0005304836086,-0.000592537922785,0.000805663992651,1.21846967915e-07,0.0,0.0,0.0,1.21846967915e-07,0.0,0.0,0.0,1.21846967915e-07,-0.0430514030159,-0.0219922140241,9.81586265564,9e-08,0.0,0.0,0.0,9e-08,0.0,0.0,0.0,9e-08
1560469801906350631,43407,1560469801903433216,base_link,0.00121486912005,-0.00062846380006,-0.603283541117,-0.797525637556,1.0,0.0,0.0,0.0,1.0,0.0,0.0,0.0,1.0,0.00031368836062,-0.000589050701819,-0.00015715417976,1.21846967915e-07,0.0,0.0,0.0,1.21846967915e-07,0.0,0.0,0.0,1.21846967915e-07,-0.0394233502448,-0.0555159002542,9.86860466003,9e-08,0.0,0.0,0.0,9e-08,0.0,0.0,0.0,9e-08
1560469801926492586,43408,1560469801923431424,base_link,0.00121675924569,-0.000631869030813,-0.603278620473,-0.797529378088,1.0,0.0,0.0,0.0,1.0,0.0,0.0,0.0,1.0,0.00104509689845,0.000901784398593,-0.00091899902327,1.21846967915e-07,0.0,0.0,0.0,1.21846967915e-07,0.0,0.0,0.0,1.21846967915e-07,-0.0292080044746,-0.0539298355579,9.78389167786,9e-08,0.0,0.0,0.0,9e-08,0.0,0.0,0.0,9e-08
1560469801948710979,43409,1560469801943431424,base_link,0.00121144697294,-0.000630320092972,-0.603273647144,-0.797533171305,1.0,0.0,0.0,0.0,1.0,0.0,0.0,0.0,1.0,0.000823790265713,-0.000374443712644,-0.001018524752,1.21846967915e-07,0.0,0.0,0.0,1.21846967915e-07,0.0,0.0,0.0,1.21846967915e-07,-0.0318237841129,-0.0235146507621,9.79384422302,9e-08,0.0,0.0,0.0,9e-08,0.0,0.0,0.0,9e-08
1560469801966431301,43410,1560469801963431424,base_link,0.00120717662049,-0.000624856992949,-0.60327968468,-0.797528651055,1.0,0.0,0.0,0.0,1.0,0.0,0.0,0.0,1.0,0.00181877717841,-0.000155297777383,0.00141325115692,1.21846967915e-07,0.0,0.0,0.0,1.21846967915e-07,0.0,0.0,0.0,1.21846967915e-07,-0.0626824870706,-0.0203821733594,9.84288024902,9e-08,0.0,0.0,0.0,9e-08,0.0,0.0,0.0,9e-08
1560469801986559558,43411,1560469801984431424,base_link,0.00119076993074,-0.000619078799959,-0.603277977733,-0.797529936534,1.0,0.0,0.0,0.0,1.0,0.0,0.0,0.0,1.0,0.00126837356947,-3.20844119415e-05,-0.000671346497256,1.21846967915e-07,0.0,0.0,0.0,1.21846967915e-07,0.0,0.0,0.0,1.21846967915e-07,6.41159713268e-05,-0.0204780548811,9.86830329895,9e-08,0.0,0.0,0.0,9e-08,0.0,0.0,0.0,9e-08
1560469802007134236,43412,1560469802004428608,base_link,0.00121622222322,-0.000623990842285,-0.603272477569,-0.797534087999,1.0,0.0,0.0,0.0,1.0,0.0,0.0,0.0,1.0,-0.000218293149373,0.00164917181246,0.000259115884546,1.21846967915e-07,0.0,0.0,0.0,1.21846967915e-07,0.0,0.0,0.0,1.21846967915e-07,-0.0365860424936,-0.00414741784334,9.76271057129,9e-08,0.0,0.0,0.0,9e-08,0.0,0.0,0.0,9e-08
1560469802027105486,43413,1560469802024428608,base_link,0.00119665408765,-0.000617420852422,-0.603269664267,-0.797536226951,1.0,0.0,0.0,0.0,1.0,0.0,0.0,0.0,1.0,0.00201048306189,-0.00239683873951,-0.000283511355519,1.21846967915e-07,0.0,0.0,0.0,1.21846967915e-07,0.0,0.0,0.0,1.21846967915e-07,0.0132639482617,-0.0480839163065,9.82311248779,9e-08,0.0,0.0,0.0,9e-08,0.0,0.0,0.0,9e-08
1560469802048805587,43414,1560469802044428608,base_link,0.00120069495791,-0.000622215179917,-0.60327426881,-0.797532633932,1.0,0.0,0.0,0.0,1.0,0.0,0.0,0.0,1.0,-0.000211534672417,0.00143512210343,0.000469631893793,1.21846967915e-07,0.0,0.0,0.0,1.21846967915e-07,0.0,0.0,0.0,1.21846967915e-07,-0.018830601126,-0.0112417787313,9.8431634903,9e-08,0.0,0.0,0.0,9e-08,0.0,0.0,0.0,9e-08
1560469802066964081,43415,1560469802064428608,base_link,0.0012047379067,-0.000624810689038,-0.603276060052,-0.79753126416,1.0,0.0,0.0,0.0,1.0,0.0,0.0,0.0,1.0,-6.72773603583e-06,0.000477204303024,0.000161003496032,1.21846967915e-07,0.0,0.0,0.0,1.21846967915e-07,0.0,0.0,0.0,1.21846967915e-07,-0.0366898328066,0.00505971163511,9.79358768463,9e-08,0.0,0.0,0.0,9e-08,0.0,0.0,0.0,9e-08
1560469802087705013,43416,1560469802084428608,base_link,0.00120231851708,-0.000622708512071,-0.60327801988,-0.797529810094,1.0,0.0,0.0,0.0,1.0,0.0,0.0,0.0,1.0,0.000645980064292,-0.000473989435704,0.00132956588641,1.21846967915e-07,0.0,0.0,0.0,1.21846967915e-07,0.0,0.0,0.0,1.21846967915e-07,0.0220379680395,-0.0195780023932,9.77582740784,9e-08,0.0,0.0,0.0,9e-08,0.0,0.0,0.0,9e-08
1560469802107184657,43417,1560469802104426816,base_link,0.00119988848784,-0.000623809598489,-0.603281254651,-0.79752741826,1.0,0.0,0.0,0.0,1.0,0.0,0.0,0.0,1.0,-0.000112969690235,0.000584027729928,4.90685379191e-05,1.21846967915e-07,0.0,0.0,0.0,1.21846967915e-07,0.0,0.0,0.0,1.21846967915e-07,0.0135242268443,-0.0183813273907,9.76708984375,9e-08,0.0,0.0,0.0,9e-08,0.0,0.0,0.0,9e-08
1560469802127485763,43418,1560469802124426816,base_link,0.00119563731551,-0.000619407825259,-0.603286702131,-0.797523235185,1.0,0.0,0.0,0.0,1.0,0.0,0.0,0.0,1.0,0.000205677613849,-0.00101053086109,0.000159762523253,1.21846967915e-07,0.0,0.0,0.0,1.21846967915e-07,0.0,0.0,0.0,1.21846967915e-07,-0.0513566285372,-0.0321969762444,9.76047420502,9e-08,0.0,0.0,0.0,9e-08,0.0,0.0,0.0,9e-08
1560469802147548810,43419,1560469802144426816,base_link,0.00119516073508,-0.000609119672524,-0.603280548691,-0.797528039926,1.0,0.0,0.0,0.0,1.0,0.0,0.0,0.0,1.0,-0.000968683103565,-0.00111730711069,-0.000564267917071,1.21846967915e-07,0.0,0.0,0.0,1.21846967915e-07,0.0,0.0,0.0,1.21846967915e-07,-0.00615015998483,-0.0369668677449,9.85461139679,9e-08,0.0,0.0,0.0,9e-08,0.0,0.0,0.0,9e-08
1560469802166993774,43420,1560469802164426816,base_link,0.00119685803066,-0.000618792971063,-0.603271697853,-0.797534699128,1.0,0.0,0.0,0.0,1.0,0.0,0.0,0.0,1.0,0.00103629671503,0.000160033494467,-0.000928668596316,1.21846967915e-07,0.0,0.0,0.0,1.21846967915e-07,0.0,0.0,0.0,1.21846967915e-07,-0.0315159335732,-0.0102228447795,9.7946100235,9e-08,0.0,0.0,0.0,9e-08,0.0,0.0,0.0,9e-08
1560469802186764350,43421,1560469802184426816,base_link,0.00119478161924,-0.000622310442496,-0.603269190115,-0.797536532516,1.0,0.0,0.0,0.0,1.0,0.0,0.0,0.0,1.0,-0.00117539952043,0.00165026844479,0.000372493872419,1.21846967915e-07,0.0,0.0,0.0,1.21846967915e-07,0.0,0.0,0.0,1.21846967915e-07,-0.0139193497598,-0.0233913958073,9.82472705841,9e-08,0.0,0.0,0.0,9e-08,0.0,0.0,0.0,9e-08
1560469802207610350,43422,1560469802204424000,base_link,0.00119683994126,-0.000626972237909,-0.603265997491,-0.797538882203,1.0,0.0,0.0,0.0,1.0,0.0,0.0,0.0,1.0,-0.0010674049845,-0.00058390351478,0.000706313701812,1.21846967915e-07,0.0,0.0,0.0,1.21846967915e-07,0.0,0.0,0.0,1.21846967915e-07,-0.0097917765379,-0.00548449158668,9.81250286102,9e-08,0.0,0.0,0.0,9e-08,0.0,0.0,0.0,9e-08
1560469802227007118,43423,1560469802224424000,base_link,0.00118708734985,-0.000613327401498,-0.603261961931,-0.797541990533,1.0,0.0,0.0,0.0,1.0,0.0,0.0,0.0,1.0,-0.00139428861439,-0.00282245222479,-0.000655638461467,1.21846967915e-07,0.0,0.0,0.0,1.21846967915e-07,0.0,0.0,0.0,1.21846967915e-07,0.0127530060709,-0.00124257802963,9.78832530975,9e-08,0.0,0.0,0.0,9e-08,0.0,0.0,0.0,9e-08
1560469802248010921,43424,1560469802244424000,base_link,0.00119334782379,-0.000614805319431,-0.603259970492,-0.797543560503,1.0,0.0,0.0,0.0,1.0,0.0,0.0,0.0,1.0,-0.00182480528019,-0.000374217575882,-0.00013915837917,1.21846967915e-07,0.0,0.0,0.0,1.21846967915e-07,0.0,0.0,0.0,1.21846967915e-07,-0.0255764760077,-0.0120604932308,9.80500507355,9e-08,0.0,0.0,0.0,9e-08,0.0,0.0,0.0,9e-08
1560469802267223639,43425,1560469802264424000,base_link,0.00118098482369,-0.000612539576472,-0.603260602695,-0.797543096888,1.0,0.0,0.0,0.0,1.0,0.0,0.0,0.0,1.0,0.00137838965748,-0.00154224806465,0.000357515760697,1.21846967915e-07,0.0,0.0,0.0,1.21846967915e-07,0.0,0.0,0.0,1.21846967915e-07,0.0129736363888,-0.00626000016928,9.83890533447,9e-08,0.0,0.0,0.0,9e-08,0.0,0.0,0.0,9e-08
1560469802287008458,43426,1560469802284424000,base_link,0.00118400709023,-0.000612455406252,-0.603257420608,-0.797545436038,1.0,0.0,0.0,0.0,1.0,0.0,0.0,0.0,1.0,-0.000204841489904,-0.000792613660451,0.00111883110367,1.21846967915e-07,0.0,0.0,0.0,1.21846967915e-07,0.0,0.0,0.0,1.21846967915e-07,-0.0281166173518,-0.0168831720948,9.79349803925,9e-08,0.0,0.0,0.0,9e-08,0.0,0.0,0.0,9e-08
1560469802306859846,43427,1560469802304421952,base_link,0.00118616316495,-0.000610888564231,-0.603254501938,-0.797547680357,1.0,0.0,0.0,0.0,1.0,0.0,0.0,0.0,1.0,0.0010664309375,-0.000898890779354,0.0011018513469,1.21846967915e-07,0.0,0.0,0.0,1.21846967915e-07,0.0,0.0,0.0,1.21846967915e-07,-0.0325164869428,-0.030922152102,9.74786472321,9e-08,0.0,0.0,0.0,9e-08,0.0,0.0,0.0,9e-08
1560469802327580777,43428,1560469802324421952,base_link,0.00117718339609,-0.00060608598435,-0.603257262557,-0.797545509795,1.0,0.0,0.0,0.0,1.0,0.0,0.0,0.0,1.0,-0.00160506821703,-0.000694825779647,-0.000573921715841,1.21846967915e-07,0.0,0.0,0.0,1.21846967915e-07,0.0,0.0,0.0,1.21846967915e-07,-0.040857501328,-0.0395305603743,9.90839481354,9e-08,0.0,0.0,0.0,9e-08,0.0,0.0,0.0,9e-08
1560469802348038635,43429,1560469802344421952,base_link,0.0011862937214,-0.000612356624576,-0.603256503914,-0.797546099851,1.0,0.0,0.0,0.0,1.0,0.0,0.0,0.0,1.0,0.00052263768157,0.000374139926862,-0.000176547822775,1.21846967915e-07,0.0,0.0,0.0,1.21846967915e-07,0.0,0.0,0.0,1.21846967915e-07,-0.0377801507711,0.00355917960405,9.79026699066,9e-08,0.0,0.0,0.0,9e-08,0.0,0.0,0.0,9e-08
1560469802367409909,43430,1560469802364421952,base_link,0.0011923791254,-0.000612855348563,-0.603253753832,-0.797548175583,1.0,0.0,0.0,0.0,1.0,0.0,0.0,0.0,1.0,-0.000871025025845,-0.000379187637009,-0.000691895605996,1.21846967915e-07,0.0,0.0,0.0,1.21846967915e-07,0.0,0.0,0.0,1.21846967915e-07,-0.0448496751487,-0.0179276838899,9.79311466217,9e-08,0.0,0.0,0.0,9e-08,0.0,0.0,0.0,9e-08
1560469802387064913,43431,1560469802384421952,base_link,0.00118618489692,-0.000612539535313,-0.603250129203,-0.797551041569,1.0,0.0,0.0,0.0,1.0,0.0,0.0,0.0,1.0,0.000618941383436,0.000264509930275,-0.0011264012428,1.21846967915e-07,0.0,0.0,0.0,1.21846967915e-07,0.0,0.0,0.0,1.21846967915e-07,-0.0253325626254,0.00106292963028,9.8479642868,9e-08,0.0,0.0,0.0,9e-08,0.0,0.0,0.0,9e-08
1560469802406276559,43432,1560469802401419904,base_link,0.00119177330561,-0.000613547931591,-0.603247199997,-0.797553212131,1.0,0.0,0.0,0.0,1.0,0.0,0.0,0.0,1.0,0.00100618728902,5.17896260135e-05,-0.000144166173413,1.21846967915e-07,0.0,0.0,0.0,1.21846967915e-07,0.0,0.0,0.0,1.21846967915e-07,-0.0364977307618,-0.00446785986423,9.79728603363,9e-08,0.0,0.0,0.0,9e-08,0.0,0.0,0.0,9e-08
1560469802428299596,43433,1560469802425419904,base_link,0.00118351116506,-0.000619366048841,-0.603245008361,-0.797554898005,1.0,0.0,0.0,0.0,1.0,0.0,0.0,0.0,1.0,0.00116192817222,-0.000266198592726,-7.21942196833e-05,1.21846967915e-07,0.0,0.0,0.0,1.21846967915e-07,0.0,0.0,0.0,1.21846967915e-07,-0.0266515500844,0.00660565495491,9.83023738861,9e-08,0.0,0.0,0.0,9e-08,0.0,0.0,0.0,9e-08
1560469802445867050,43434,1560469802441419904,base_link,0.00119021889362,-0.00062129644859,-0.603243691272,-0.797555877919,1.0,0.0,0.0,0.0,1.0,0.0,0.0,0.0,1.0,-0.000854485318996,0.00239649461582,0.000579460873269,1.21846967915e-07,0.0,0.0,0.0,1.21846967915e-07,0.0,0.0,0.0,1.21846967915e-07,-0.0420596562326,0.0251167044044,9.81745529175,9e-08,0.0,0.0,0.0,9e-08,0.0,0.0,0.0,9e-08
1560469802468201060,43435,1560469802465419904,base_link,0.00119380265167,-0.000617572585192,-0.603247737369,-0.797552674759,1.0,0.0,0.0,0.0,1.0,0.0,0.0,0.0,1.0,0.00139305507764,0.000272499542916,0.00152429344598,1.21846967915e-07,0.0,0.0,0.0,1.21846967915e-07,0.0,0.0,0.0,1.21846967915e-07,-0.0120167210698,-0.0102273598313,9.81467056274,9e-08,0.0,0.0,0.0,9e-08,0.0,0.0,0.0,9e-08
1560469802488628042,43436,1560469802485419904,base_link,0.00118692024418,-0.000613185155885,-0.603245693247,-0.797554297413,1.0,0.0,0.0,0.0,1.0,0.0,0.0,0.0,1.0,-0.000538755382877,-0.000165223988006,0.00026737205917,1.21846967915e-07,0.0,0.0,0.0,1.21846967915e-07,0.0,0.0,0.0,1.21846967915e-07,-0.0341517217457,-0.0210123583674,9.81187820435,9e-08,0.0,0.0,0.0,9e-08,0.0,0.0,0.0,9e-08
1560469802505729828,43437,1560469802501419904,base_link,0.00119636060318,-0.000614379961417,-0.603241078167,-0.797557732381,1.0,0.0,0.0,0.0,1.0,0.0,0.0,0.0,1.0,-0.000446251680842,-0.000274448422715,0.000167343881913,1.21846967915e-07,0.0,0.0,0.0,1.21846967915e-07,0.0,0.0,0.0,1.21846967915e-07,-0.0165738537908,0.00802535563707,9.84395027161,9e-08,0.0,0.0,0.0,9e-08,0.0,0.0,0.0,9e-08
1560469802526130488,43438,1560469802521417856,base_link,0.00119691594141,-0.000618557911833,-0.603244091667,-0.797555477524,1.0,0.0,0.0,0.0,1.0,0.0,0.0,0.0,1.0,0.000210757309105,0.000797398737632,0.000680499593727,1.21846967915e-07,0.0,0.0,0.0,1.21846967915e-07,0.0,0.0,0.0,1.21846967915e-07,-0.0181919336319,-0.006102822721,9.75154590607,9e-08,0.0,0.0,0.0,9e-08,0.0,0.0,0.0,9e-08
1560469802548372505,43439,1560469802545417856,base_link,0.00118826861406,-0.000624350119473,-0.603248506549,-0.79755215846,1.0,0.0,0.0,0.0,1.0,0.0,0.0,0.0,1.0,0.00149309984408,0.00154775707051,0.0010760956211,1.21846967915e-07,0.0,0.0,0.0,1.21846967915e-07,0.0,0.0,0.0,1.21846967915e-07,0.0116771422327,-0.000918522477149,9.83716106415,9e-08,0.0,0.0,0.0,9e-08,0.0,0.0,0.0,9e-08
1560469802568390542,43440,1560469802565417856,base_link,0.00119647634237,-0.000624045419161,-0.603248032397,-0.797552548318,1.0,0.0,0.0,0.0,1.0,0.0,0.0,0.0,1.0,-0.000102687001345,5.68872783333e-05,0.000896553858183,1.21846967915e-07,0.0,0.0,0.0,1.21846967915e-07,0.0,0.0,0.0,1.21846967915e-07,-0.0616257227957,-0.0549329295754,9.82047176361,9e-08,0.0,0.0,0.0,9e-08,0.0,0.0,0.0,9e-08
1560469802585958085,43441,1560469802581417856,base_link,0.00119385696101,-0.00062427033269,-0.603250708722,-0.797550546343,1.0,0.0,0.0,0.0,1.0,0.0,0.0,0.0,1.0,0.00106443068944,4.80875314679e-05,0.000560334709007,1.21846967915e-07,0.0,0.0,0.0,1.21846967915e-07,0.0,0.0,0.0,1.21846967915e-07,-0.00632013380527,-0.0306543782353,9.85452461243,9e-08,0.0,0.0,0.0,9e-08,0.0,0.0,0.0,9e-08
1560469802607825740,43442,1560469802605415552,base_link,0.00120139704868,-0.000629819640305,-0.603254133154,-0.797547964849,1.0,0.0,0.0,0.0,1.0,0.0,0.0,0.0,1.0,0.000102697813418,0.00154517707415,0.00057150417706,1.21846967915e-07,0.0,0.0,0.0,1.21846967915e-07,0.0,0.0,0.0,1.21846967915e-07,-0.00165789946914,-0.0299128443003,9.77968215942,9e-08,0.0,0.0,0.0,9e-08,0.0,0.0,0.0,9e-08
1560469802625975544,43443,1560469802621415552,base_link,0.00120341505542,-0.000620069662489,-0.603248780504,-0.797551968799,1.0,0.0,0.0,0.0,1.0,0.0,0.0,0.0,1.0,-0.00161578296684,-0.000907951849513,-0.000566098839045,1.21846967915e-07,0.0,0.0,0.0,1.21846967915e-07,0.0,0.0,0.0,1.21846967915e-07,0.00960939005017,-0.0226497501135,9.80468177795,9e-08,0.0,0.0,0.0,9e-08,0.0,0.0,0.0,9e-08
1560469802649683060,43444,1560469802645415552,base_link,0.00120861562256,-0.000620917332748,-0.603243807176,-0.797555762016,1.0,0.0,0.0,0.0,1.0,0.0,0.0,0.0,1.0,0.00053374725394,0.00110642402433,0.000776237342507,1.21846967915e-07,0.0,0.0,0.0,1.21846967915e-07,0.0,0.0,0.0,1.21846967915e-07,-0.0102468654513,-0.0442530289292,9.79356479645,9e-08,0.0,0.0,0.0,9e-08,0.0,0.0,0.0,9e-08
1560469802668100973,43445,1560469802665415552,base_link,0.00120730092077,-0.000613192029443,-0.603243765029,-0.797555804162,1.0,0.0,0.0,0.0,1.0,0.0,0.0,0.0,1.0,-0.00139440502971,-0.000570995674934,-4.18760064349e-05,1.21846967915e-07,0.0,0.0,0.0,1.21846967915e-07,0.0,0.0,0.0,1.21846967915e-07,-0.00761546567082,-0.013165332377,9.76419448853,9e-08,0.0,0.0,0.0,9e-08,0.0,0.0,0.0,9e-08
1560469802688995219,43446,1560469802685415552,base_link,0.0012128471003,-0.00061347907253,-0.603242837798,-0.797556478512,1.0,0.0,0.0,0.0,1.0,0.0,0.0,0.0,1.0,-0.000876715464983,-0.00143619533628,-0.00099999923259,1.21846967915e-07,0.0,0.0,0.0,1.21846967915e-07,0.0,0.0,0.0,1.21846967915e-07,-0.0134407095611,-0.0203263610601,9.78762531281,9e-08,0.0,0.0,0.0,9e-08,0.0,0.0,0.0,9e-08
1560469802707391451,43447,1560469802701413760,base_link,0.00121572557776,-0.000611661345632,-0.603242616527,-0.797556699783,1.0,0.0,0.0,0.0,1.0,0.0,0.0,0.0,1.0,-0.000746356439777,-0.00100568681955,0.00080455938587,1.21846967915e-07,0.0,0.0,0.0,1.21846967915e-07,0.0,0.0,0.0,1.21846967915e-07,-0.0198738984764,-0.0100812017918,9.84415817261,9e-08,0.0,0.0,0.0,9e-08,0.0,0.0,0.0,9e-08
1560469802726974946,43448,1560469802721413760,base_link,0.00122150047803,-0.000611629447382,-0.60324414435,-0.797555424841,1.0,0.0,0.0,0.0,1.0,0.0,0.0,0.0,1.0,2.49456752499e-06,5.30683610123e-05,0.000790798512753,1.21846967915e-07,0.0,0.0,0.0,1.21846967915e-07,0.0,0.0,0.0,1.21846967915e-07,-0.046957295388,0.0135204195976,9.80478000641,9e-08,0.0,0.0,0.0,9e-08,0.0,0.0,0.0,9e-08
1560469802748577587,43449,1560469802745413760,base_link,0.00122127245699,-0.000613121379965,-0.603244239181,-0.79755533001,1.0,0.0,0.0,0.0,1.0,0.0,0.0,0.0,1.0,-0.000437278969912,5.34561695531e-05,5.14657403983e-05,1.21846967915e-07,0.0,0.0,0.0,1.21846967915e-07,0.0,0.0,0.0,1.21846967915e-07,-0.0415935255587,-0.0177770256996,9.82082939148,9e-08,0.0,0.0,0.0,9e-08,0.0,0.0,0.0,9e-08
1560469802766410078,43450,1560469802761413760,base_link,0.00122503632697,-0.000609269923569,-0.60324414435,-0.797555509134,1.0,0.0,0.0,0.0,1.0,0.0,0.0,0.0,1.0,-0.000956401810981,5.7927245507e-05,0.00122952926904,1.21846967915e-07,0.0,0.0,0.0,1.21846967915e-07,0.0,0.0,0.0,1.21846967915e-07,-0.0384612865746,-0.0232595354319,9.77143383026,9e-08,0.0,0.0,0.0,9e-08,0.0,0.0,0.0,9e-08
1560469802786997581,43451,1560469802781413760,base_link,0.0012225585121,-0.00060633977094,-0.603243817712,-0.797555667185,1.0,0.0,0.0,0.0,1.0,0.0,0.0,0.0,1.0,-0.00054149015341,-0.000160477939062,0.000485512980958,1.21846967915e-07,0.0,0.0,0.0,1.21846967915e-07,0.0,0.0,0.0,1.21846967915e-07,-0.0137392506003,0.0092108771205,9.79710483551,9e-08,0.0,0.0,0.0,9e-08,0.0,0.0,0.0,9e-08
1560469802806994289,43452,1560469802801411712,base_link,0.0012222449626,-0.000603296719087,-0.603236452551,-0.797561346473,1.0,0.0,0.0,0.0,1.0,0.0,0.0,0.0,1.0,-0.000214816449443,-0.00229351175949,0.000278654828435,1.21846967915e-07,0.0,0.0,0.0,1.21846967915e-07,0.0,0.0,0.0,1.21846967915e-07,-0.0246768072248,-0.0202762633562,9.79772567749,9e-08,0.0,0.0,0.0,9e-08,0.0,0.0,0.0,9e-08
1560469802826883694,43453,1560469802821411712,base_link,0.0012325352556,-0.000600794373433,-0.603228855581,-0.797567088981,1.0,0.0,0.0,0.0,1.0,0.0,0.0,0.0,1.0,-0.00139425741509,0.000161923555424,-4.6123714128e-05,1.21846967915e-07,0.0,0.0,0.0,1.21846967915e-07,0.0,0.0,0.0,1.21846967915e-07,-0.0309874527156,0.00859040021896,9.86389350891,9e-08,0.0,0.0,0.0,9e-08,0.0,0.0,0.0,9e-08
1560469802846404549,43454,1560469802843411712,base_link,0.00123441007008,-0.000601173756808,-0.603225294172,-0.797569807453,1.0,0.0,0.0,0.0,1.0,0.0,0.0,0.0,1.0,-0.000121355282317,-0.00154425879009,-0.000266899354756,1.21846967915e-07,0.0,0.0,0.0,1.21846967915e-07,0.0,0.0,0.0,1.21846967915e-07,0.00011209025979,-0.0133274123073,9.7683467865,9e-08,0.0,0.0,0.0,9e-08,0.0,0.0,0.0,9e-08
1560469802865985247,43455,1560469802863411712,base_link,0.00123428383533,-0.000605526859483,-0.603236252353,-0.797561378083,1.0,0.0,0.0,0.0,1.0,0.0,0.0,0.0,1.0,0.000117948657135,-0.000147609389387,0.00185549247544,1.21846967915e-07,0.0,0.0,0.0,1.21846967915e-07,0.0,0.0,0.0,1.21846967915e-07,-0.040855679661,-0.00208275020122,9.80336093903,9e-08,0.0,0.0,0.0,9e-08,0.0,0.0,0.0,9e-08
1560469802886354340,43456,1560469802883411712,base_link,0.00123632295666,-0.00059964085041,-0.603236557918,-0.797561241106,1.0,0.0,0.0,0.0,1.0,0.0,0.0,0.0,1.0,-0.000434850575402,-0.00196182518266,0.000591836229432,1.21846967915e-07,0.0,0.0,0.0,1.21846967915e-07,0.0,0.0,0.0,1.21846967915e-07,-0.0278928354383,0.0281523093581,9.78535938263,9e-08,0.0,0.0,0.0,9e-08,0.0,0.0,0.0,9e-08
1560469802906655701,43457,1560469802903409920,base_link,0.00124291924714,-0.000600228621962,-0.603238370232,-0.797559765966,1.0,0.0,0.0,0.0,1.0,0.0,0.0,0.0,1.0,-0.00169422710314,0.00187568983529,0.00165473099332,1.21846967915e-07,0.0,0.0,0.0,1.21846967915e-07,0.0,0.0,0.0,1.21846967915e-07,-0.0504383333027,-0.0430401191115,9.7861366272,9e-08,0.0,0.0,0.0,9e-08,0.0,0.0,0.0,9e-08
1560469802926851374,43458,1560469802923409920,base_link,0.00123942468071,-0.00060016836514,-0.603239128875,-0.797559260204,1.0,0.0,0.0,0.0,1.0,0.0,0.0,0.0,1.0,0.000848434341606,-0.000155921530677,0.000778956047725,1.21846967915e-07,0.0,0.0,0.0,1.21846967915e-07,0.0,0.0,0.0,1.21846967915e-07,-0.0436646416783,-0.0196911916137,9.80750274658,9e-08,0.0,0.0,0.0,9e-08,0.0,0.0,0.0,9e-08
1560469802945931170,43459,1560469802943409920,base_link,0.00125521295602,-0.000599632639183,-0.60323481936,-0.797562389607,1.0,0.0,0.0,0.0,1.0,0.0,0.0,0.0,1.0,8.79783765413e-05,0.0018606823869,-0.000391678855522,1.21846967915e-07,0.0,0.0,0.0,1.21846967915e-07,0.0,0.0,0.0,1.21846967915e-07,-0.0139099806547,0.0146273821592,9.82250213623,9e-08,0.0,0.0,0.0,9e-08,0.0,0.0,0.0,9e-08
1560469802966636866,43460,1560469802963409920,base_link,0.00125838555592,-0.000604050094004,-0.603231226341,-0.797565139689,1.0,0.0,0.0,0.0,1.0,0.0,0.0,0.0,1.0,0.0011712196283,0.00121273705736,0.000135507769301,1.21846967915e-07,0.0,0.0,0.0,1.21846967915e-07,0.0,0.0,0.0,1.21846967915e-07,-0.0294322669506,0.00781559944153,9.80714893341,9e-08,0.0,0.0,0.0,9e-08,0.0,0.0,0.0,9e-08
1560469802985863987,43461,1560469802983409920,base_link,0.00126213851876,-0.00060268188547,-0.603225673494,-0.797569428131,1.0,0.0,0.0,0.0,1.0,0.0,0.0,0.0,1.0,0.000497537257615,0.000580074556638,-0.00112938159145,1.21846967915e-07,0.0,0.0,0.0,1.21846967915e-07,0.0,0.0,0.0,1.21846967915e-07,-0.0325475409627,0.00492306798697,9.77549934387,9e-08,0.0,0.0,0.0,9e-08,0.0,0.0,0.0,9e-08
1560469803006255878,43462,1560469803003409920,base_link,0.00126447579611,-0.000595451951692,-0.603225852618,-0.797569249007,1.0,0.0,0.0,0.0,1.0,0.0,0.0,0.0,1.0,0.000514868996106,0.00122259627096,-0.000394420523662,1.21846967915e-07,0.0,0.0,0.0,1.21846967915e-07,0.0,0.0,0.0,1.21846967915e-07,-0.0311992838979,-0.0240232348442,9.83769607544,9e-08,0.0,0.0,0.0,9e-08,0.0,0.0,0.0,9e-08
1560469803026077441,43463,1560469803023407872,base_link,0.00126262510083,-0.000600959544628,-0.60322386118,-0.797570734683,1.0,0.0,0.0,0.0,1.0,0.0,0.0,0.0,1.0,0.000725656165741,0.000157879985636,-0.000182236952242,1.21846967915e-07,0.0,0.0,0.0,1.21846967915e-07,0.0,0.0,0.0,1.21846967915e-07,-0.0285808779299,-0.0183186009526,9.82342338562,9e-08,0.0,0.0,0.0,9e-08,0.0,0.0,0.0,9e-08
1560469803047796026,43464,1560469803043407872,base_link,0.00125354329874,-0.000602578720357,-0.603222038328,-0.797572051772,1.0,0.0,0.0,0.0,1.0,0.0,0.0,0.0,1.0,0.00125668256078,0.000688824686222,-0.000508032098878,1.21846967915e-07,0.0,0.0,0.0,1.21846967915e-07,0.0,0.0,0.0,1.21846967915e-07,-0.0205067172647,-0.000935234129428,9.81071090698,9e-08,0.0,0.0,0.0,9e-08,0.0,0.0,0.0,9e-08
1560469803065897809,43465,1560469803063407872,base_link,0.00126119029698,-0.00060110310733,-0.603215473957,-0.797577014564,1.0,0.0,0.0,0.0,1.0,0.0,0.0,0.0,1.0,-0.000772844941821,0.00100478844251,-0.00101408048067,1.21846967915e-07,0.0,0.0,0.0,1.21846967915e-07,0.0,0.0,0.0,1.21846967915e-07,-0.0100806094706,0.0263378545642,9.81264591217,9e-08,0.0,0.0,0.0,9e-08,0.0,0.0,0.0,9e-08
1560469803086609969,43466,1560469803083407872,base_link,0.00124976720453,-0.000598919517799,-0.603215178929,-0.797577225298,1.0,0.0,0.0,0.0,1.0,0.0,0.0,0.0,1.0,0.00160059181508,0.000181206298294,0.00140656658914,1.21846967915e-07,0.0,0.0,0.0,1.21846967915e-07,0.0,0.0,0.0,1.21846967915e-07,0.00534142926335,-0.0190293565392,9.79283237457,9e-08,0.0,0.0,0.0,9e-08,0.0,0.0,0.0,9e-08
1560469803106222766,43467,1560469803103405824,base_link,0.00124776387097,-0.000589835596015,-0.603215010341,-0.797577478179,1.0,0.0,0.0,0.0,1.0,0.0,0.0,0.0,1.0,-0.000122096767882,4.76955319755e-05,-0.00059655943187,1.21846967915e-07,0.0,0.0,0.0,1.21846967915e-07,0.0,0.0,0.0,1.21846967915e-07,-0.0234116502106,-0.0232288390398,9.81180286407,9e-08,0.0,0.0,0.0,9e-08,0.0,0.0,0.0,9e-08
1560469803127327267,43468,1560469803123405824,base_link,0.00124490537622,-0.000582757477325,-0.603213071586,-0.797578911172,1.0,0.0,0.0,0.0,1.0,0.0,0.0,0.0,1.0,0.000195113971131,-0.000781310140155,-0.000276622973615,1.21846967915e-07,0.0,0.0,0.0,1.21846967915e-07,0.0,0.0,0.0,1.21846967915e-07,-0.0180191136897,-0.0100110471249,9.78481292725,9e-08,0.0,0.0,0.0,9e-08,0.0,0.0,0.0,9e-08
1560469803145706440,43469,1560469803143405824,base_link,0.00125724676783,-0.000582296722544,-0.603210426872,-0.797580881537,1.0,0.0,0.0,0.0,1.0,0.0,0.0,0.0,1.0,-0.000133557405206,0.00164472893812,-0.000821476278361,1.21846967915e-07,0.0,0.0,0.0,1.21846967915e-07,0.0,0.0,0.0,1.21846967915e-07,-0.0194702483714,-0.0311517044902,9.78685569763,9e-08,0.0,0.0,0.0,9e-08,0.0,0.0,0.0,9e-08
1560469803166593018,43470,1560469803163405824,base_link,0.00125894523644,-0.000586947116905,-0.603211480543,-0.797580080747,1.0,0.0,0.0,0.0,1.0,0.0,0.0,0.0,1.0,-0.000513414619491,-0.000143306184327,0.00186447554734,1.21846967915e-07,0.0,0.0,0.0,1.21846967915e-07,0.0,0.0,0.0,1.21846967915e-07,-0.0407374277711,-0.0545843690634,9.81394958496,9e-08,0.0,0.0,0.0,9e-08,0.0,0.0,0.0,9e-08
1560469803186068904,43471,1560469803183405824,base_link,0.00127377092547,-0.000588042564535,-0.603209288907,-0.797581850915,1.0,0.0,0.0,0.0,1.0,0.0,0.0,0.0,1.0,-0.000422293291194,0.00101182493381,0.000999380485155,1.21846967915e-07,0.0,0.0,0.0,1.21846967915e-07,0.0,0.0,0.0,1.21846967915e-07,-0.0268149152398,-0.0107804983854,9.8116645813,9e-08,0.0,0.0,0.0,9e-08,0.0,0.0,0.0,9e-08
1560469803206965342,43472,1560469803204403264,base_link,0.00127588133424,-0.000590450594267,-0.603208825291,-0.797582061649,1.0,0.0,0.0,0.0,1.0,0.0,0.0,0.0,1.0,-0.000326329551172,0.00123058143072,0.00058009615168,1.21846967915e-07,0.0,0.0,0.0,1.21846967915e-07,0.0,0.0,0.0,1.21846967915e-07,0.00198626890779,-0.0348937362432,9.82929706573,9e-08,0.0,0.0,0.0,9e-08,0.0,0.0,0.0,9e-08
1560469803226459479,43473,1560469803224403264,base_link,0.00127696048289,-0.000592231833684,-0.60321161752,-0.797580028064,1.0,0.0,0.0,0.0,1.0,0.0,0.0,0.0,1.0,0.00043695513159,-0.00164394278545,0.00164219283033,1.21846967915e-07,0.0,0.0,0.0,1.21846967915e-07,0.0,0.0,0.0,1.21846967915e-07,-0.0254036039114,-0.00531135499477,9.77270412445,9e-08,0.0,0.0,0.0,9e-08,0.0,0.0,0.0,9e-08
1560469803247880031,43474,1560469803244403264,base_link,0.00127657745695,-0.000592822136517,-0.603207160491,-0.797583389275,1.0,0.0,0.0,0.0,1.0,0.0,0.0,0.0,1.0,-0.000664294231683,-0.000270179531071,-0.000902791216504,1.21846967915e-07,0.0,0.0,0.0,1.21846967915e-07,0.0,0.0,0.0,1.21846967915e-07,-0.0335337482393,-0.0284352973104,9.80674171448,9e-08,0.0,0.0,0.0,9e-08,0.0,0.0,0.0,9e-08
1560469803266956261,43475,1560469803264403264,base_link,0.00127290619479,-0.000596925074597,-0.603201660327,-0.797587456446,1.0,0.0,0.0,0.0,1.0,0.0,0.0,0.0,1.0,0.000825723225717,-5.78447361477e-05,-0.000818862929009,1.21846967915e-07,0.0,0.0,0.0,1.21846967915e-07,0.0,0.0,0.0,1.21846967915e-07,-0.0180010050535,-0.0230931788683,9.82663726807,9e-08,0.0,0.0,0.0,9e-08,0.0,0.0,0.0,9e-08
1560469803287046501,43476,1560469803284403264,base_link,0.00127509766628,-0.000593459484124,-0.603203820353,-0.797585886476,1.0,0.0,0.0,0.0,1.0,0.0,0.0,0.0,1.0,-0.000548314070329,-0.00122447917238,-0.000160109717399,1.21846967915e-07,0.0,0.0,0.0,1.21846967915e-07,0.0,0.0,0.0,1.21846967915e-07,-0.0313358716667,0.0014685317874,9.79247379303,9e-08,0.0,0.0,0.0,9e-08,0.0,0.0,0.0,9e-08
1560469803307069555,43477,1560469803304401216,base_link,0.00128040115157,-0.000591602162237,-0.603204715974,-0.797585243736,1.0,0.0,0.0,0.0,1.0,0.0,0.0,0.0,1.0,-0.00117859535385,-0.0016502084909,0.00059872190468,1.21846967915e-07,0.0,0.0,0.0,1.21846967915e-07,0.0,0.0,0.0,1.21846967915e-07,-0.0576517321169,-0.0104701295495,9.78519153595,9e-08,0.0,0.0,0.0,9e-08,0.0,0.0,0.0,9e-08
1560469803327280679,43478,1560469803324401216,base_link,0.00127255580795,-0.000588228212348,-0.603205917159,-0.797584379726,1.0,0.0,0.0,0.0,1.0,0.0,0.0,0.0,1.0,-0.000962281541433,-0.000690047512762,0.00069616176188,1.21846967915e-07,0.0,0.0,0.0,1.21846967915e-07,0.0,0.0,0.0,1.21846967915e-07,-0.042121745646,-0.0290542542934,9.77006435394,9e-08,0.0,0.0,0.0,9e-08,0.0,0.0,0.0,9e-08
1560469803346935978,43479,1560469803344401216,base_link,0.00128244784617,-0.000591433801217,-0.603208403823,-0.797582483118,1.0,0.0,0.0,0.0,1.0,0.0,0.0,0.0,1.0,-9.06777313503e-06,-0.00100923213176,0.000473464111565,1.21846967915e-07,0.0,0.0,0.0,1.21846967915e-07,0.0,0.0,0.0,1.21846967915e-07,-0.0231952741742,-0.00566341727972,9.79458141327,9e-08,0.0,0.0,0.0,9e-08,0.0,0.0,0.0,9e-08
1560469803367607916,43480,1560469803364401216,base_link,0.00128543769997,-0.000600936207457,-0.603206011989,-0.797584200602,1.0,0.0,0.0,0.0,1.0,0.0,0.0,0.0,1.0,0.000744321208913,0.00112212239765,0.00109142425936,1.21846967915e-07,0.0,0.0,0.0,1.21846967915e-07,0.0,0.0,0.0,1.21846967915e-07,-0.0113459788263,-0.0162331610918,9.79280853271,9e-08,0.0,0.0,0.0,9e-08,0.0,0.0,0.0,9e-08
1560469803387001561,43481,1560469803384401216,base_link,0.00128656683627,-0.000594475988731,-0.603202050186,-0.797587235175,1.0,0.0,0.0,0.0,1.0,0.0,0.0,0.0,1.0,-0.00012894043175,-0.000482002622448,-0.000592327385675,1.21846967915e-07,0.0,0.0,0.0,1.21846967915e-07,0.0,0.0,0.0,1.21846967915e-07,-0.0129058212042,0.00719242542982,9.8186712265,9e-08,0.0,0.0,0.0,9e-08,0.0,0.0,0.0,9e-08
1560469803407038643,43482,1560469803404397888,base_link,0.00128587927464,-0.000594464176089,-0.603198183212,-0.797590174917,1.0,0.0,0.0,0.0,1.0,0.0,0.0,0.0,1.0,0.000199405491003,-0.000584805500694,0.000150626321556,1.21846967915e-07,0.0,0.0,0.0,1.21846967915e-07,0.0,0.0,0.0,1.21846967915e-07,-0.040817540139,-0.0578889846802,9.83492660522,9e-08,0.0,0.0,0.0,9e-08,0.0,0.0,0.0,9e-08
1560469803426608130,43483,1560469803424397888,base_link,0.00128260482671,-0.000588670136872,-0.603195496351,-0.797592187429,1.0,0.0,0.0,0.0,1.0,0.0,0.0,0.0,1.0,-0.000117297975521,-0.00122867105529,0.000153034940013,1.21846967915e-07,0.0,0.0,0.0,1.21846967915e-07,0.0,0.0,0.0,1.21846967915e-07,-0.0292676314712,-0.0150876939297,9.8420753479,9e-08,0.0,0.0,0.0,9e-08,0.0,0.0,0.0,9e-08
1560469803447711198,43484,1560469803444397888,base_link,0.00129363211334,-0.000587008834873,-0.603193631353,-0.797593630959,1.0,0.0,0.0,0.0,1.0,0.0,0.0,0.0,1.0,-0.00204555690289,0.00153999915347,-0.000577173195779,1.21846967915e-07,0.0,0.0,0.0,1.21846967915e-07,0.0,0.0,0.0,1.21846967915e-07,-0.0588318109512,-0.0231362730265,9.84022331238,9e-08,0.0,0.0,0.0,9e-08,0.0,0.0,0.0,9e-08
1560469803466963146,43485,1560469803464397888,base_link,0.00129914186713,-0.000583067734106,-0.603182789076,-0.797601691544,1.0,0.0,0.0,0.0,1.0,0.0,0.0,0.0,1.0,0.000616738165263,-0.000481473165564,-0.000495676475111,1.21846967915e-07,0.0,0.0,0.0,1.21846967915e-07,0.0,0.0,0.0,1.21846967915e-07,-0.0579036697745,-0.0339103490114,9.87510108948,9e-08,0.0,0.0,0.0,9e-08,0.0,0.0,0.0,9e-08
1560469803486772833,43486,1560469803484397888,base_link,0.00130117010189,-0.000578326954511,-0.603181145349,-0.797602998096,1.0,0.0,0.0,0.0,1.0,0.0,0.0,0.0,1.0,-1.6459125618e-05,-0.00058570416877,-6.09324706602e-05,1.21846967915e-07,0.0,0.0,0.0,1.21846967915e-07,0.0,0.0,0.0,1.21846967915e-07,-0.0433647446334,-0.0124748498201,9.78514766693,9e-08,0.0,0.0,0.0,9e-08,0.0,0.0,0.0,9e-08
1560469803506991930,43487,1560469803504395328,base_link,0.0013046588649,-0.000570347411867,-0.603181809162,-0.797602418577,1.0,0.0,0.0,0.0,1.0,0.0,0.0,0.0,1.0,0.0006206764956,0.000700847362168,0.000140779797221,1.21846967915e-07,0.0,0.0,0.0,1.21846967915e-07,0.0,0.0,0.0,1.21846967915e-07,-0.022020522505,-0.0400908142328,9.81161308289,9e-08,0.0,0.0,0.0,9e-08,0.0,0.0,0.0,9e-08
1560469803527685437,43488,1560469803524395328,base_link,0.0013081997764,-0.000566644169144,-0.603183663623,-0.797601069878,1.0,0.0,0.0,0.0,1.0,0.0,0.0,0.0,1.0,-0.000770680664573,0.00132803944871,-0.000592748110648,1.21846967915e-07,0.0,0.0,0.0,1.21846967915e-07,0.0,0.0,0.0,1.21846967915e-07,-0.0242537371814,0.0389392226934,9.78903102875,9e-08,0.0,0.0,0.0,9e-08,0.0,0.0,0.0,9e-08
1560469803547691497,43489,1560469803544395328,base_link,0.00130481687442,-0.000564610871817,-0.603181198032,-0.797602945412,1.0,0.0,0.0,0.0,1.0,0.0,0.0,0.0,1.0,-0.000238538195845,0.00154110149015,-0.00112936552614,1.21846967915e-07,0.0,0.0,0.0,1.21846967915e-07,0.0,0.0,0.0,1.21846967915e-07,-0.0156556740403,-0.0281899571419,9.79364299774,9e-08,0.0,0.0,0.0,9e-08,0.0,0.0,0.0,9e-08
1560469803566570152,43490,1560469803564395328,base_link,0.00131060292879,-0.000567213028122,-0.603188247093,-0.797597582226,1.0,0.0,0.0,0.0,1.0,0.0,0.0,0.0,1.0,0.000419944000896,0.00090908864513,0.00099314621184,1.21846967915e-07,0.0,0.0,0.0,1.21846967915e-07,0.0,0.0,0.0,1.21846967915e-07,-0.0540742613375,-0.0141889676452,9.79587745667,9e-08,0.0,0.0,0.0,9e-08,0.0,0.0,0.0,9e-08
1560469803586600531,43491,1560469803584395328,base_link,0.00131688729555,-0.000569677260512,-0.603192872709,-0.797594052427,1.0,0.0,0.0,0.0,1.0,0.0,0.0,0.0,1.0,-0.000215598251089,0.000589936971664,0.000999840092845,1.21846967915e-07,0.0,0.0,0.0,1.21846967915e-07,0.0,0.0,0.0,1.21846967915e-07,-0.0189633741975,-0.0147932618856,9.79323959351,9e-08,0.0,0.0,0.0,9e-08,0.0,0.0,0.0,9e-08
1560469803607335091,43492,1560469803604393280,base_link,0.0013160118841,-0.000567330249045,-0.603187362009,-0.797598214429,1.0,0.0,0.0,0.0,1.0,0.0,0.0,0.0,1.0,0.00019119893841,0.00111707614269,-0.000392962479964,1.21846967915e-07,0.0,0.0,0.0,1.21846967915e-07,0.0,0.0,0.0,1.21846967915e-07,-0.0283255204558,-0.0130028873682,9.77093601227,9e-08,0.0,0.0,0.0,9e-08,0.0,0.0,0.0,9e-08
1560469803627059165,43493,1560469803624393280,base_link,0.0013037686362,-0.000566907545788,-0.603182736392,-0.797601828521,1.0,0.0,0.0,0.0,1.0,0.0,0.0,0.0,1.0,0.00242742104456,0.000901116989553,-0.000843702931888,1.21846967915e-07,0.0,0.0,0.0,1.21846967915e-07,0.0,0.0,0.0,1.21846967915e-07,-0.0320248156786,-0.0299967452884,9.81166553497,9e-08,0.0,0.0,0.0,9e-08,0.0,0.0,0.0,9e-08
1560469803648000219,43494,1560469803644393280,base_link,0.00129860107861,-0.00056916598302,-0.603180460462,-0.797603598689,1.0,0.0,0.0,0.0,1.0,0.0,0.0,0.0,1.0,0.000735597859602,-0.00218046060763,0.000361042912118,1.21846967915e-07,0.0,0.0,0.0,1.21846967915e-07,0.0,0.0,0.0,1.21846967915e-07,-0.00954026728868,-0.0243234187365,9.78426074982,9e-08,0.0,0.0,0.0,9e-08,0.0,0.0,0.0,9e-08
1560469803666774129,43495,1560469803664393280,base_link,0.00129498336435,-0.000560911127612,-0.603182789076,-0.797601691544,1.0,0.0,0.0,0.0,1.0,0.0,0.0,0.0,1.0,0.00103961210698,0.000259389227722,-0.000168717262568,1.21846967915e-07,0.0,0.0,0.0,1.21846967915e-07,0.0,0.0,0.0,1.21846967915e-07,0.00427759066224,-0.0224303007126,9.84351348877,9e-08,0.0,0.0,0.0,9e-08,0.0,0.0,0.0,9e-08
1560469803688905677,43496,1560469803684393280,base_link,0.00129517948714,-0.000561646022124,-0.603183632013,-0.797601185782,1.0,0.0,0.0,0.0,1.0,0.0,0.0,0.0,1.0,-9.11317874852e-06,0.000480934482766,0.000572181656025,1.21846967915e-07,0.0,0.0,0.0,1.21846967915e-07,0.0,0.0,0.0,1.21846967915e-07,-0.00370583683252,-0.0276404172182,9.79421138763,9e-08,0.0,0.0,0.0,9e-08,0.0,0.0,0.0,9e-08
1560469803707293878,43497,1560469803704391232,base_link,0.00129031959331,-0.000557968709591,-0.603182799612,-0.797601849594,1.0,0.0,0.0,0.0,1.0,0.0,0.0,0.0,1.0,0.000426093349233,0.000271956901997,0.00130928086583,1.21846967915e-07,0.0,0.0,0.0,1.21846967915e-07,0.0,0.0,0.0,1.21846967915e-07,-0.025284409523,-0.0175121501088,9.82146930695,9e-08,0.0,0.0,0.0,9e-08,0.0,0.0,0.0,9e-08
1560469803728528357,43498,1560469803724391232,base_link,0.00129332531392,-0.000553499538447,-0.603183811137,-0.797600922364,1.0,0.0,0.0,0.0,1.0,0.0,0.0,0.0,1.0,0.000186503471923,0.00047593814088,-0.000707196304575,1.21846967915e-07,0.0,0.0,0.0,1.21846967915e-07,0.0,0.0,0.0,1.21846967915e-07,-0.00266648828983,-0.0641673505306,9.80306148529,9e-08,0.0,0.0,0.0,9e-08,0.0,0.0,0.0,9e-08
1560469803748310676,43499,1560469803744391232,base_link,0.00129732391385,-0.000553871039867,-0.603185065006,-0.797600089963,1.0,0.0,0.0,0.0,1.0,0.0,0.0,0.0,1.0,0.00116183410864,0.0014388517011,0.000549880322069,1.21846967915e-07,0.0,0.0,0.0,1.21846967915e-07,0.0,0.0,0.0,1.21846967915e-07,-0.00662336871028,-0.0208400636911,9.8260345459,9e-08,0.0,0.0,0.0,9e-08,0.0,0.0,0.0,9e-08
1560469803768354152,43500,1560469803764391232,base_link,0.00129309210684,-0.000558918618885,-0.60318915325,-0.79759692895,1.0,0.0,0.0,0.0,1.0,0.0,0.0,0.0,1.0,0.00170806131791,-0.00120436877478,0.00267249019817,1.21846967915e-07,0.0,0.0,0.0,1.21846967915e-07,0.0,0.0,0.0,1.21846967915e-07,-0.0204654559493,-1.15558505046e-05,9.83220291138,9e-08,0.0,0.0,0.0,9e-08,0.0,0.0,0.0,9e-08
1560469803787410188,43501,1560469803784391232,base_link,0.00129753843473,-0.000560551644629,-0.603190881271,-0.797595706691,1.0,0.0,0.0,0.0,1.0,0.0,0.0,0.0,1.0,-0.000977915595286,0.000265602546278,0.000479349633679,1.21846967915e-07,0.0,0.0,0.0,1.21846967915e-07,0.0,0.0,0.0,1.21846967915e-07,-0.00104286149144,-0.0255319699645,9.81096553802,9e-08,0.0,0.0,0.0,9e-08,0.0,0.0,0.0,9e-08
1560469803806065895,43502,1560469803800391232,base_link,0.0012944738567,-0.000556547899815,-0.603191998162,-0.797594758387,1.0,0.0,0.0,0.0,1.0,0.0,0.0,0.0,1.0,8.40454449644e-05,-0.00122585729696,-0.000379480305128,1.21846967915e-07,0.0,0.0,0.0,1.21846967915e-07,0.0,0.0,0.0,1.21846967915e-07,0.00350537151098,0.00853337347508,9.79901790619,9e-08,0.0,0.0,0.0,9e-08,0.0,0.0,0.0,9e-08
1560469803827376402,43503,1560469803824387392,base_link,0.0012983921142,-0.000551535799883,-0.603192008699,-0.797594832144,1.0,0.0,0.0,0.0,1.0,0.0,0.0,0.0,1.0,-0.000105522703961,0.000587914255448,0.000571995275095,1.21846967915e-07,0.0,0.0,0.0,1.21846967915e-07,0.0,0.0,0.0,1.21846967915e-07,-0.0354891270399,-0.0106007158756,9.77705860138,9e-08,0.0,0.0,0.0,9e-08,0.0,0.0,0.0,9e-08
1560469803848981474,43504,1560469803844387392,base_link,0.00129110787108,-0.000554569302841,-0.603193020223,-0.797594073501,1.0,0.0,0.0,0.0,1.0,0.0,0.0,0.0,1.0,9.93658250081e-05,-5.21794718225e-05,0.000245879287831,1.21846967915e-07,0.0,0.0,0.0,1.21846967915e-07,0.0,0.0,0.0,1.21846967915e-07,0.0194850899279,0.00627308338881,9.83008861542,9e-08,0.0,0.0,0.0,9e-08,0.0,0.0,0.0,9e-08
1560469803867897630,43505,1560469803864387392,base_link,0.00128788009749,-0.000561219202965,-0.603193346861,-0.797593831156,1.0,0.0,0.0,0.0,1.0,0.0,0.0,0.0,1.0,-0.00075341493357,-0.000901051273104,0.000694254704285,1.21846967915e-07,0.0,0.0,0.0,1.21846967915e-07,0.0,0.0,0.0,1.21846967915e-07,-0.00829233601689,-0.0247923433781,9.81077671051,9e-08,0.0,0.0,0.0,9e-08,0.0,0.0,0.0,9e-08
1560469803887684558,43506,1560469803884387392,base_link,0.00128696735481,-0.000561913473512,-0.603198193749,-0.797590164381,1.0,0.0,0.0,0.0,1.0,0.0,0.0,0.0,1.0,0.000433855893789,0.000703007332049,0.00216157967225,1.21846967915e-07,0.0,0.0,0.0,1.21846967915e-07,0.0,0.0,0.0,1.21846967915e-07,-0.0200061202049,-0.0308858081698,9.82792472839,9e-08,0.0,0.0,0.0,9e-08,0.0,0.0,0.0,9e-08
1560469803907310874,43507,1560469803904385344,base_link,0.00128955164809,-0.000564977351836,-0.60319687666,-0.797591060001,1.0,0.0,0.0,0.0,1.0,0.0,0.0,0.0,1.0,-0.00223934091628,0.000694942311384,0.000917704834137,1.21846967915e-07,0.0,0.0,0.0,1.21846967915e-07,0.0,0.0,0.0,1.21846967915e-07,-0.0422796979547,-0.0113356858492,9.83331108093,9e-08,0.0,0.0,0.0,9e-08,0.0,0.0,0.0,9e-08
1560469803928042655,43508,1560469803924385344,base_link,0.0012885516071,-0.00056200834508,-0.603203588545,-0.797586118283,1.0,0.0,0.0,0.0,1.0,0.0,0.0,0.0,1.0,-0.000661910860799,0.000479420472402,0.00014916130749,1.21846967915e-07,0.0,0.0,0.0,1.21846967915e-07,0.0,0.0,0.0,1.21846967915e-07,-0.0259736962616,-0.0519597232342,9.80043411255,9e-08,0.0,0.0,0.0,9e-08,0.0,0.0,0.0,9e-08
1560469803948124800,43509,1560469803944385344,base_link,0.00128897616251,-0.00056991240206,-0.60320072256,-0.797588225626,1.0,0.0,0.0,0.0,1.0,0.0,0.0,0.0,1.0,0.00157411210239,0.000160527182743,-0.00040497459122,1.21846967915e-07,0.0,0.0,0.0,1.21846967915e-07,0.0,0.0,0.0,1.21846967915e-07,-0.0308067798615,-0.00783402472734,9.76363754272,9e-08,0.0,0.0,0.0,9e-08,0.0,0.0,0.0,9e-08
1560469803968289547,43510,1560469803964385344,base_link,0.00128213153901,-0.00057206209713,-0.603194958978,-0.797592640508,1.0,0.0,0.0,0.0,1.0,0.0,0.0,0.0,1.0,0.00211648200639,-0.000584153924137,-0.000627368048299,1.21846967915e-07,0.0,0.0,0.0,1.21846967915e-07,0.0,0.0,0.0,1.21846967915e-07,-0.0286291874945,-0.00974249839783,9.79338169098,9e-08,0.0,0.0,0.0,9e-08,0.0,0.0,0.0,9e-08
1560469803987384808,43511,1560469803984385344,base_link,0.00129337914993,-0.000566405693714,-0.603192440704,-0.797594568726,1.0,0.0,0.0,0.0,1.0,0.0,0.0,0.0,1.0,0.000511438585818,-0.000160166295245,3.08701855829e-05,1.21846967915e-07,0.0,0.0,0.0,1.21846967915e-07,0.0,0.0,0.0,1.21846967915e-07,-0.0329890027642,0.0145395621657,9.78257083893,9e-08,0.0,0.0,0.0,9e-08,0.0,0.0,0.0,9e-08
1560469804007748489,43512,1560469804000385344,base_link,0.00128731374922,-0.000565472083397,-0.603192904319,-0.797594105111,1.0,0.0,0.0,0.0,1.0,0.0,0.0,0.0,1.0,0.000951449910644,-0.000364745064871,0.000884277804289,1.21846967915e-07,0.0,0.0,0.0,1.21846967915e-07,0.0,0.0,0.0,1.21846967915e-07,-0.0127488598228,0.00720553845167,9.83857440948,9e-08,0.0,0.0,0.0,9e-08,0.0,0.0,0.0,9e-08
1560469804027567437,43513,1560469804024386112,base_link,0.0012887113453,-0.000559170141728,-0.603192314264,-0.797594610873,1.0,0.0,0.0,0.0,1.0,0.0,0.0,0.0,1.0,-0.00137695216108,-0.000473886233522,0.00101454975083,1.21846967915e-07,0.0,0.0,0.0,1.21846967915e-07,0.0,0.0,0.0,1.21846967915e-07,-0.0317540541291,0.00471762567759,9.79132652283,9e-08,0.0,0.0,0.0,9e-08,0.0,0.0,0.0,9e-08
1560469804048824786,43514,1560469804044386112,base_link,0.00129016541157,-0.000561524109072,-0.603194937905,-0.797592661581,1.0,0.0,0.0,0.0,1.0,0.0,0.0,0.0,1.0,-0.000224572533625,-0.00047592545161,0.000577820814215,1.21846967915e-07,0.0,0.0,0.0,1.21846967915e-07,0.0,0.0,0.0,1.21846967915e-07,-0.0184035077691,-0.00154545903206,9.80037593842,9e-08,0.0,0.0,0.0,9e-08,0.0,0.0,0.0,9e-08
1560469804068355428,43515,1560469804064386112,base_link,0.00129807292591,-0.000560031641422,-0.60319376833,-0.797593409688,1.0,0.0,0.0,0.0,1.0,0.0,0.0,0.0,1.0,-0.000880594656337,0.000156434194651,-0.000799705972895,1.21846967915e-07,0.0,0.0,0.0,1.21846967915e-07,0.0,0.0,0.0,1.21846967915e-07,-0.0303502269089,0.0224224328995,9.83465385437,9e-08,0.0,0.0,0.0,9e-08,0.0,0.0,0.0,9e-08
1560469804087201905,43516,1560469804084386112,base_link,0.00130537622566,-0.000560903513191,-0.603194495363,-0.797592851242,1.0,0.0,0.0,0.0,1.0,0.0,0.0,0.0,1.0,0.00116241560318,0.00101579737384,0.00086552684661,1.21846967915e-07,0.0,0.0,0.0,1.21846967915e-07,0.0,0.0,0.0,1.21846967915e-07,-0.00404463708401,0.00900616496801,9.80920982361,9e-08,0.0,0.0,0.0,9e-08,0.0,0.0,0.0,9e-08
1560469804107628391,43517,1560469804104384320,base_link,0.00131108741175,-0.000561060617215,-0.603193979064,-0.797593283247,1.0,0.0,0.0,0.0,1.0,0.0,0.0,0.0,1.0,-1.52089032781e-05,0.000586720299907,0.000250399898505,1.21846967915e-07,0.0,0.0,0.0,1.21846967915e-07,0.0,0.0,0.0,1.21846967915e-07,-0.0370897948742,-0.0113867372274,9.83059406281,9e-08,0.0,0.0,0.0,9e-08,0.0,0.0,0.0,9e-08
1560469804128043240,43518,1560469804124384320,base_link,0.00131675134727,-0.000560253118171,-0.603198636291,-0.797589721839,1.0,0.0,0.0,0.0,1.0,0.0,0.0,0.0,1.0,-0.00160790828522,0.000695082941093,0.000590521725826,1.21846967915e-07,0.0,0.0,0.0,1.21846967915e-07,0.0,0.0,0.0,1.21846967915e-07,-0.0447802655399,-0.025657325983,9.82411766052,9e-08,0.0,0.0,0.0,9e-08,0.0,0.0,0.0,9e-08
1560469804145967643,43519,1560469804140384320,base_link,0.00131849587283,-0.000547798354005,-0.603199879623,-0.797588899975,1.0,0.0,0.0,0.0,1.0,0.0,0.0,0.0,1.0,-0.000238036882365,-0.000161803764058,-0.000487987825181,1.21846967915e-07,0.0,0.0,0.0,1.21846967915e-07,0.0,0.0,0.0,1.21846967915e-07,-0.0173458568752,-0.0133450850844,9.81007480621,9e-08,0.0,0.0,0.0,9e-08,0.0,0.0,0.0,9e-08
1560469804166888385,43520,1560469804160384320,base_link,0.00131310235215,-0.000550219040139,-0.603199205273,-0.797589405737,1.0,0.0,0.0,0.0,1.0,0.0,0.0,0.0,1.0,0.000405324011808,0.00133149535395,0.000241023677518,1.21846967915e-07,0.0,0.0,0.0,1.21846967915e-07,0.0,0.0,0.0,1.21846967915e-07,-0.0124103352427,-0.00543520599604,9.78641986847,9e-08,0.0,0.0,0.0,9e-08,0.0,0.0,0.0,9e-08
1560469804188117830,43521,1560469804185384320,base_link,0.00131569500072,-0.000561234884556,-0.60319912098,-0.797589321444,1.0,0.0,0.0,0.0,1.0,0.0,0.0,0.0,1.0,0.00191083166283,0.00208084471524,0.00106873409823,1.21846967915e-07,0.0,0.0,0.0,1.21846967915e-07,0.0,0.0,0.0,1.21846967915e-07,-0.0274034664035,-0.01146684587,9.8054265976,9e-08,0.0,0.0,0.0,9e-08,0.0,0.0,0.0,9e-08
1560469804207664018,43522,1560469804201382016,base_link,0.00131141314433,-0.000559125731133,-0.60319915259,-0.797589458421,1.0,0.0,0.0,0.0,1.0,0.0,0.0,0.0,1.0,-0.000248160940828,-0.000810078461654,-0.000484610616695,1.21846967915e-07,0.0,0.0,0.0,1.21846967915e-07,0.0,0.0,0.0,1.21846967915e-07,-0.0167992264032,-0.0280238986015,9.80671977997,9e-08,0.0,0.0,0.0,9e-08,0.0,0.0,0.0,9e-08
1560469804228083140,43523,1560469804225382016,base_link,0.00131785473859,-0.000556934877032,-0.603193220421,-0.797593873303,1.0,0.0,0.0,0.0,1.0,0.0,0.0,0.0,1.0,0.000290668191155,-0.000482143484987,-0.000706357881427,1.21846967915e-07,0.0,0.0,0.0,1.21846967915e-07,0.0,0.0,0.0,1.21846967915e-07,-0.0233717486262,-0.0180391892791,9.82219409943,9e-08,0.0,0.0,0.0,9e-08,0.0,0.0,0.0,9e-08
1560469804245626242,43524,1560469804241382016,base_link,0.00131847060118,-0.000561556748184,-0.603188900369,-0.797597097537,1.0,0.0,0.0,0.0,1.0,0.0,0.0,0.0,1.0,-0.000131677617901,-0.000269111129455,-0.000490625214297,1.21846967915e-07,0.0,0.0,0.0,1.21846967915e-07,0.0,0.0,0.0,1.21846967915e-07,-0.0312856659293,-0.00735680013895,9.76657581329,9e-08,0.0,0.0,0.0,9e-08,0.0,0.0,0.0,9e-08
1560469804267936026,43525,1560469804265382016,base_link,0.00132008782186,-0.000564128364488,-0.603188605341,-0.797597308271,1.0,0.0,0.0,0.0,1.0,0.0,0.0,0.0,1.0,-0.000120374024846,0.00101569516119,0.000352600764018,1.21846967915e-07,0.0,0.0,0.0,1.21846967915e-07,0.0,0.0,0.0,1.21846967915e-07,0.00105162709951,0.00914830714464,9.83266353607,9e-08,0.0,0.0,0.0,9e-08,0.0,0.0,0.0,9e-08
1560469804289162861,43526,1560469804285382016,base_link,0.00132064709078,-0.000563692243387,-0.603193652426,-0.797593525592,1.0,0.0,0.0,0.0,1.0,0.0,0.0,0.0,1.0,0.000514432846103,-0.00101040955633,0.000144812336657,1.21846967915e-07,0.0,0.0,0.0,1.21846967915e-07,0.0,0.0,0.0,1.21846967915e-07,0.0237195994705,0.00572221726179,9.8163356781,9e-08,0.0,0.0,0.0,9e-08,0.0,0.0,0.0,9e-08
1560469804307542206,43527,1560469804301379968,base_link,0.00131561103629,-0.000565698005322,-0.603197213835,-0.79759080712,1.0,0.0,0.0,0.0,1.0,0.0,0.0,0.0,1.0,-0.000529375334736,-0.000264221336693,0.0013209435856,1.21846967915e-07,0.0,0.0,0.0,1.21846967915e-07,0.0,0.0,0.0,1.21846967915e-07,0.00807452201843,-0.0200020596385,9.78650379181,9e-08,0.0,0.0,0.0,9e-08,0.0,0.0,0.0,9e-08
1560469804326961667,43528,1560469804321379968,base_link,0.00131591013898,-0.000566785303464,-0.603202492727,-0.797586876926,1.0,0.0,0.0,0.0,1.0,0.0,0.0,0.0,1.0,0.000698407588061,-0.00102294632234,-0.00220070290379,1.21846967915e-07,0.0,0.0,0.0,1.21846967915e-07,0.0,0.0,0.0,1.21846967915e-07,-0.034053876996,-0.0110309273005,9.81063842773,9e-08,0.0,0.0,0.0,9e-08,0.0,0.0,0.0,9e-08
1560469804348735313,43529,1560469804345379968,base_link,0.00132584794603,-0.000569485953332,-0.603203620156,-0.797585918086,1.0,0.0,0.0,0.0,1.0,0.0,0.0,0.0,1.0,-0.00066172220977,0.00015555601567,-0.000483974232338,1.21846967915e-07,0.0,0.0,0.0,1.21846967915e-07,0.0,0.0,0.0,1.21846967915e-07,-0.00947031006217,-0.0184402912855,9.7641954422,9e-08,0.0,0.0,0.0,9e-08,0.0,0.0,0.0,9e-08
1560469804368364217,43530,1560469804365379968,base_link,0.0013225080964,-0.000565311645491,-0.60320838275,-0.797582335604,1.0,0.0,0.0,0.0,1.0,0.0,0.0,0.0,1.0,0.000932886789087,-0.00218069204129,-0.000280669453787,1.21846967915e-07,0.0,0.0,0.0,1.21846967915e-07,0.0,0.0,0.0,1.21846967915e-07,-0.0244216583669,-0.00430344045162,9.81900501251,9e-08,0.0,0.0,0.0,9e-08,0.0,0.0,0.0,9e-08
1560469804385866791,43531,1560469804381379968,base_link,0.00131840507601,-0.00057706448353,-0.603212755485,-0.79757914298,1.0,0.0,0.0,0.0,1.0,0.0,0.0,0.0,1.0,0.000305945577566,0.00069390621502,0.000570321339183,1.21846967915e-07,0.0,0.0,0.0,1.21846967915e-07,0.0,0.0,0.0,1.21846967915e-07,-0.0378356613219,-0.0248747169971,9.81906986237,9e-08,0.0,0.0,0.0,9e-08,0.0,0.0,0.0,9e-08
1560469804408629942,43532,1560469804405377920,base_link,0.00130951439588,-0.00057714778941,-0.603213292857,-0.797578774195,1.0,0.0,0.0,0.0,1.0,0.0,0.0,0.0,1.0,0.000816917105112,5.08959055878e-05,-0.00114347727504,1.21846967915e-07,0.0,0.0,0.0,1.21846967915e-07,0.0,0.0,0.0,1.21846967915e-07,-0.0230917818844,0.00592125207186,9.7771282196,9e-08,0.0,0.0,0.0,9e-08,0.0,0.0,0.0,9e-08
1560469804426031152,43533,1560469804421377920,base_link,0.00130645644445,-0.000575782132737,-0.603216791046,-0.79757603465,1.0,0.0,0.0,0.0,1.0,0.0,0.0,0.0,1.0,0.00061990931863,0.000264400092419,0.00023978498939,1.21846967915e-07,0.0,0.0,0.0,1.21846967915e-07,0.0,0.0,0.0,1.21846967915e-07,-0.0342713668942,-0.0143647044897,9.82596302032,9e-08,0.0,0.0,0.0,9e-08,0.0,0.0,0.0,9e-08
1560469804449108770,43534,1560469804445377920,base_link,0.00130344603171,-0.000569593666518,-0.603217781497,-0.79757529708,1.0,0.0,0.0,0.0,1.0,0.0,0.0,0.0,1.0,-0.000652528135106,-0.00143246306106,0.000268120813416,1.21846967915e-07,0.0,0.0,0.0,1.21846967915e-07,0.0,0.0,0.0,1.21846967915e-07,-0.0104564614594,-0.0205905213952,9.79623794556,9e-08,0.0,0.0,0.0,9e-08,0.0,0.0,0.0,9e-08
1560469804467638075,43535,1560469804465377920,base_link,0.00130577958418,-0.000566360542257,-0.603212839779,-0.797578974392,1.0,0.0,0.0,0.0,1.0,0.0,0.0,0.0,1.0,0.000294407916954,-0.00100708694663,-0.000604304077569,1.21846967915e-07,0.0,0.0,0.0,1.21846967915e-07,0.0,0.0,0.0,1.21846967915e-07,-0.0257493779063,-0.0294985771179,9.82667446136,9e-08,0.0,0.0,0.0,9e-08,0.0,0.0,0.0,9e-08
1560469804488337786,43536,1560469804485377920,base_link,0.00130517755102,-0.000565200145674,-0.603217149294,-0.797575844989,1.0,0.0,0.0,0.0,1.0,0.0,0.0,0.0,1.0,-0.00213260017335,0.000385416817153,0.00123647623695,1.21846967915e-07,0.0,0.0,0.0,1.21846967915e-07,0.0,0.0,0.0,1.21846967915e-07,-0.0455619506538,0.0041678249836,9.78982543945,9e-08,0.0,0.0,0.0,9e-08,0.0,0.0,0.0,9e-08
1560469804508380992,43537,1560469804505375872,base_link,0.00131041853633,-0.000561460806481,-0.603217844717,-0.79757523386,1.0,0.0,0.0,0.0,1.0,0.0,0.0,0.0,1.0,-0.00119854905643,-0.0014359136112,-0.000567550654523,1.21846967915e-07,0.0,0.0,0.0,1.21846967915e-07,0.0,0.0,0.0,1.21846967915e-07,-0.020710054785,-0.0468390733004,9.77933597565,9e-08,0.0,0.0,0.0,9e-08,0.0,0.0,0.0,9e-08
1560469804528910079,43538,1560469804525375872,base_link,0.0013045481471,-0.000560970478936,-0.603216411724,-0.797576413971,1.0,0.0,0.0,0.0,1.0,0.0,0.0,0.0,1.0,-0.000644042389467,0.000271801283816,0.00111014698632,1.21846967915e-07,0.0,0.0,0.0,1.21846967915e-07,0.0,0.0,0.0,1.21846967915e-07,-0.0189611688256,-0.00632739812136,9.79776000977,9e-08,0.0,0.0,0.0,9e-08,0.0,0.0,0.0,9e-08
1560469804548933344,43539,1560469804545375872,base_link,0.00131274776709,-0.000565118074565,-0.603219383077,-0.797574116968,1.0,0.0,0.0,0.0,1.0,0.0,0.0,0.0,1.0,-0.00107511749957,-0.00036415780778,0.000689180451445,1.21846967915e-07,0.0,0.0,0.0,1.21846967915e-07,0.0,0.0,0.0,1.21846967915e-07,-0.0383572168648,0.0119667127728,9.84390449524,9e-08,0.0,0.0,0.0,9e-08,0.0,0.0,0.0,9e-08
1560469804568592768,43540,1560469804565375872,base_link,0.00131833473522,-0.000567190472973,-0.603220499968,-0.797573168664,1.0,0.0,0.0,0.0,1.0,0.0,0.0,0.0,1.0,0.00020541343838,0.000900054583326,0.000131759850774,1.21846967915e-07,0.0,0.0,0.0,1.21846967915e-07,0.0,0.0,0.0,1.21846967915e-07,-0.0301986597478,-0.0299721509218,9.84179210663,9e-08,0.0,0.0,0.0,9e-08,0.0,0.0,0.0,9e-08
1560469804586167118,43541,1560469804581375872,base_link,0.00132239013462,-0.0005678864722,-0.603222428187,-0.797571746208,1.0,0.0,0.0,0.0,1.0,0.0,0.0,0.0,1.0,0.000201408402063,-0.000263302819803,0.000675126328133,1.21846967915e-07,0.0,0.0,0.0,1.21846967915e-07,0.0,0.0,0.0,1.21846967915e-07,-0.0191529616714,-0.0377698242664,9.7831287384,9e-08,0.0,0.0,0.0,9e-08,0.0,0.0,0.0,9e-08
1560469804608582527,43542,1560469804605373824,base_link,0.00132368079954,-0.000573927054017,-0.603224946461,-0.79756981799,1.0,0.0,0.0,0.0,1.0,0.0,0.0,0.0,1.0,0.000301135733025,0.00218402175233,0.000236913110712,1.21846967915e-07,0.0,0.0,0.0,1.21846967915e-07,0.0,0.0,0.0,1.21846967915e-07,-0.0403493344784,-0.0338736996055,9.80076885223,9e-08,0.0,0.0,0.0,9e-08,0.0,0.0,0.0,9e-08
1560469804626105603,43543,1560469804621373824,base_link,0.00131935329778,-0.000580425941653,-0.603223397564,-0.797570945418,1.0,0.0,0.0,0.0,1.0,0.0,0.0,0.0,1.0,0.00116018473636,0.00122878467664,0.000762382056564,1.21846967915e-07,0.0,0.0,0.0,1.21846967915e-07,0.0,0.0,0.0,1.21846967915e-07,0.0171653497964,0.0226831883192,9.79275989532,9e-08,0.0,0.0,0.0,9e-08,0.0,0.0,0.0,9e-08
1560469804649773448,43544,1560469804646373824,base_link,0.00131409074514,-0.000580822015016,-0.603215284296,-0.797577119931,1.0,0.0,0.0,0.0,1.0,0.0,0.0,0.0,1.0,-0.000560350483283,0.00143453315832,-0.000926347158384,1.21846967915e-07,0.0,0.0,0.0,1.21846967915e-07,0.0,0.0,0.0,1.21846967915e-07,-0.0506339929998,0.0154426395893,9.78968811035,9e-08,0.0,0.0,0.0,9e-08,0.0,0.0,0.0,9e-08
1560469804668927030,43545,1560469804666373824,base_link,0.00131244672993,-0.000584528097711,-0.603212334017,-0.797579480155,1.0,0.0,0.0,0.0,1.0,0.0,0.0,0.0,1.0,0.000410037348047,0.00133459584322,0.000347190740285,1.21846967915e-07,0.0,0.0,0.0,1.21846967915e-07,0.0,0.0,0.0,1.21846967915e-07,-0.019308488816,-0.00894492119551,9.84234905243,9e-08,0.0,0.0,0.0,9e-08,0.0,0.0,0.0,9e-08
1560469804687155695,43546,1560469804682373824,base_link,0.0013125534553,-0.000584770236295,-0.603218065988,-0.797575096882,1.0,0.0,0.0,0.0,1.0,0.0,0.0,0.0,1.0,-0.000217985230847,0.000807300326414,0.00109906552825,1.21846967915e-07,0.0,0.0,0.0,1.21846967915e-07,0.0,0.0,0.0,1.21846967915e-07,0.0098416544497,-0.0342778116465,9.81043815613,9e-08,0.0,0.0,0.0,9e-08,0.0,0.0,0.0,9e-08
1560469804706358526,43547,1560469804702373824,base_link,0.00130753267082,-0.000593813904546,-0.603223207903,-0.797571135079,1.0,0.0,0.0,0.0,1.0,0.0,0.0,0.0,1.0,0.000210335594602,-0.000474756554468,0.000791564409155,1.21846967915e-07,0.0,0.0,0.0,1.21846967915e-07,0.0,0.0,0.0,1.21846967915e-07,-0.0325804129243,-0.0367057546973,9.7867231369,9e-08,0.0,0.0,0.0,9e-08,0.0,0.0,0.0,9e-08
1560469804727099959,43548,1560469804722371776,base_link,0.00130633942933,-0.000588703558005,-0.603221437736,-0.797572483778,1.0,0.0,0.0,0.0,1.0,0.0,0.0,0.0,1.0,0.000372095499188,-0.000277800951153,-0.00156239129137,1.21846967915e-07,0.0,0.0,0.0,1.21846967915e-07,0.0,0.0,0.0,1.21846967915e-07,-0.00156630575657,-0.0211586207151,9.79117679596,9e-08,0.0,0.0,0.0,9e-08,0.0,0.0,0.0,9e-08
1560469804750485241,43549,1560469804746371776,base_link,0.00130667372298,-0.000582603542546,-0.603222586237,-0.797571672451,1.0,0.0,0.0,0.0,1.0,0.0,0.0,0.0,1.0,0.000723339151591,0.000265669106739,2.63262736553e-05,1.21846967915e-07,0.0,0.0,0.0,1.21846967915e-07,0.0,0.0,0.0,1.21846967915e-07,-0.0364067330956,-0.0152730196714,9.80862236023,9e-08,0.0,0.0,0.0,9e-08,0.0,0.0,0.0,9e-08
1560469804765548087,43550,1560469804762371776,base_link,0.00130081214179,-0.000584591729575,-0.603217581299,-0.797575412984,1.0,0.0,0.0,0.0,1.0,0.0,0.0,0.0,1.0,-0.000152024425915,-0.000270705728326,-0.00156181212515,1.21846967915e-07,0.0,0.0,0.0,1.21846967915e-07,0.0,0.0,0.0,1.21846967915e-07,-0.0447075255215,-0.0123726800084,9.80255222321,9e-08,0.0,0.0,0.0,9e-08,0.0,0.0,0.0,9e-08
1560469804789064778,43551,1560469804786371776,base_link,0.00130472883525,-0.000574663677208,-0.603214525653,-0.797577794281,1.0,0.0,0.0,0.0,1.0,0.0,0.0,0.0,1.0,-0.00183783355169,0.00154238450341,-0.000582088076044,1.21846967915e-07,0.0,0.0,0.0,1.21846967915e-07,0.0,0.0,0.0,1.21846967915e-07,-0.0497067570686,0.00931729376316,9.78373527527,9e-08,0.0,0.0,0.0,9e-08,0.0,0.0,0.0,9e-08
1560469804808653244,43552,1560469804806369728,base_link,0.00130579658286,-0.000568627705202,-0.6032115543,-0.797580091284,1.0,0.0,0.0,0.0,1.0,0.0,0.0,0.0,1.0,0.000385242921766,0.00100222963374,-0.00114366016351,1.21846967915e-07,0.0,0.0,0.0,1.21846967915e-07,0.0,0.0,0.0,1.21846967915e-07,-0.00203657895327,-0.0140603482723,9.78237724304,9e-08,0.0,0.0,0.0,9e-08,0.0,0.0,0.0,9e-08
1560469804829624793,43553,1560469804826369728,base_link,0.0012972767456,-0.000569515834789,-0.60321318749,-0.797578795268,1.0,0.0,0.0,0.0,1.0,0.0,0.0,0.0,1.0,-0.00105929723941,0.000692075875122,0.00153843604494,1.21846967915e-07,0.0,0.0,0.0,1.21846967915e-07,0.0,0.0,0.0,1.21846967915e-07,0.000727228820324,-0.0379801318049,9.83614826202,9e-08,0.0,0.0,0.0,9e-08,0.0,0.0,0.0,9e-08
1560469804848288308,43554,1560469804842369728,base_link,0.00130851818267,-0.000564672651524,-0.603214040964,-0.797578194676,1.0,0.0,0.0,0.0,1.0,0.0,0.0,0.0,1.0,-0.00257054087706,-0.00155012239702,-2.70297969109e-05,1.21846967915e-07,0.0,0.0,0.0,1.21846967915e-07,0.0,0.0,0.0,1.21846967915e-07,0.00964139029384,-0.0264427438378,9.78390789032,9e-08,0.0,0.0,0.0,9e-08,0.0,0.0,0.0,9e-08
1560469804866605805,43555,1560469804862369728,base_link,0.00130572307283,-0.000559647709973,-0.603212797632,-0.797579016539,1.0,0.0,0.0,0.0,1.0,0.0,0.0,0.0,1.0,-0.000218478293391,-0.00111554795876,0.000671203015372,1.21846967915e-07,0.0,0.0,0.0,1.21846967915e-07,0.0,0.0,0.0,1.21846967915e-07,-0.0181829482317,-0.00761312246323,9.80982112885,9e-08,0.0,0.0,0.0,9e-08,0.0,0.0,0.0,9e-08
1560469804888740960,43556,1560469804886369728,base_link,0.00131047990444,-0.000556462988733,-0.603215063025,-0.797577341202,1.0,0.0,0.0,0.0,1.0,0.0,0.0,0.0,1.0,6.61910962663e-06,-0.00153860892169,0.00120582128875,1.21846967915e-07,0.0,0.0,0.0,1.21846967915e-07,0.0,0.0,0.0,1.21846967915e-07,-0.0215590856969,-0.0212817117572,9.82171916962,9e-08,0.0,0.0,0.0,9e-08,0.0,0.0,0.0,9e-08
1560469804906814867,43557,1560469804902367680,base_link,0.00131028003618,-0.000553614454464,-0.603211606983,-0.7975800386,1.0,0.0,0.0,0.0,1.0,0.0,0.0,0.0,1.0,-0.00077278201934,-0.00026972926571,-0.000483006675495,1.21846967915e-07,0.0,0.0,0.0,1.21846967915e-07,0.0,0.0,0.0,1.21846967915e-07,-0.0524703375995,-0.0134641304612,9.79671669006,9e-08,0.0,0.0,0.0,9e-08,0.0,0.0,0.0,9e-08
1560469804927161295,43558,1560469804922367680,base_link,0.00131380604812,-0.000553099308022,-0.603208951732,-0.797582019502,1.0,0.0,0.0,0.0,1.0,0.0,0.0,0.0,1.0,-0.00224957359023,-0.000371360249119,0.000496111868415,1.21846967915e-07,0.0,0.0,0.0,1.21846967915e-07,0.0,0.0,0.0,1.21846967915e-07,-0.0294869616628,0.00700841844082,9.81556034088,9e-08,0.0,0.0,0.0,9e-08,0.0,0.0,0.0,9e-08
1560469804950013215,43559,1560469804946367680,base_link,0.00131426032035,-0.000556598113834,-0.603202798292,-0.797586655656,1.0,0.0,0.0,0.0,1.0,0.0,0.0,0.0,1.0,0.000198890760657,0.00122521165758,0.000560879008844,1.21846967915e-07,0.0,0.0,0.0,1.21846967915e-07,0.0,0.0,0.0,1.21846967915e-07,-0.0245785005391,-0.0219457075,9.82712554932,9e-08,0.0,0.0,0.0,9e-08,0.0,0.0,0.0,9e-08
1560469804966062770,43560,1560469804962367680,base_link,0.0013096639678,-0.000559498549642,-0.603205506227,-0.797584537776,1.0,0.0,0.0,0.0,1.0,0.0,0.0,0.0,1.0,0.000292573444312,0.000795053609181,-0.000396197807277,1.21846967915e-07,0.0,0.0,0.0,1.21846967915e-07,0.0,0.0,0.0,1.21846967915e-07,-0.0273701958358,-0.0306588560343,9.79671478271,9e-08,0.0,0.0,0.0,9e-08,0.0,0.0,0.0,9e-08
1560469804989163881,43561,1560469804986367680,base_link,0.00129989660029,-0.000555290120964,-0.603203009026,-0.797586529215,1.0,0.0,0.0,0.0,1.0,0.0,0.0,0.0,1.0,-0.000763002666645,-0.00154362758622,0.000268294592388,1.21846967915e-07,0.0,0.0,0.0,1.21846967915e-07,0.0,0.0,0.0,1.21846967915e-07,-0.0552673228085,0.00483028590679,9.83397197723,9e-08,0.0,0.0,0.0,9e-08,0.0,0.0,0.0,9e-08
