%time,field.header.seq,field.header.stamp,field.header.frame_id,field.orientation.x,field.orientation.y,field.orientation.z,field.orientation.w,field.orientation_covariance0,field.orientation_covariance1,field.orientation_covariance2,field.orientation_covariance3,field.orientation_covariance4,field.orientation_covariance5,field.orientation_covariance6,field.orientation_covariance7,field.orientation_covariance8,field.angular_velocity.x,field.angular_velocity.y,field.angular_velocity.z,field.angular_velocity_covariance0,field.angular_velocity_covariance1,field.angular_velocity_covariance2,field.angular_velocity_covariance3,field.angular_velocity_covariance4,field.angular_velocity_covariance5,field.angular_velocity_covariance6,field.angular_velocity_covariance7,field.angular_velocity_covariance8,field.linear_acceleration.x,field.linear_acceleration.y,field.linear_acceleration.z,field.linear_acceleration_covariance0,field.linear_acceleration_covariance1,field.linear_acceleration_covariance2,field.linear_acceleration_covariance3,field.linear_acceleration_covariance4,field.linear_acceleration_covariance5,field.linear_acceleration_covariance6,field.linear_acceleration_covariance7,field.linear_acceleration_covariance8
1560461061887872741,4475,1560461061836204992,base_link,-0.00553339890795,0.00797448823278,-0.421937031624,-0.906573190232,1.0,0.0,0.0,0.0,1.0,0.0,0.0,0.0,1.0,-0.0019849401433,0.00227726087905,-0.0108389975503,1.21846967915e-07,0.0,0.0,0.0,1.21846967915e-07,0.0,0.0,0.0,1.21846967915e-07,0.176434218884,0.00267048925161,9.84290599823,9e-08,0.0,0.0,0.0,9e-08,0.0,0.0,0.0,9e-08
1560461061887930017,4476,1560461061856204992,base_link,-0.00554857844117,0.00797469625052,-0.421904894652,-0.90658813129,1.0,0.0,0.0,0.0,1.0,0.0,0.0,0.0,1.0,0.00188696291298,-0.00217775511555,-0.00777969881892,1.21846967915e-07,0.0,0.0,0.0,1.21846967915e-07,0.0,0.0,0.0,1.21846967915e-07,0.203665181994,0.0253584310412,9.81238174438,9e-08,0.0,0.0,0.0,9e-08,0.0,0.0,0.0,9e-08
1560461061888044703,4477,1560461061876202944,base_link,-0.00555362075183,0.00797332203277,-0.421869048757,-0.906604758222,1.0,0.0,0.0,0.0,1.0,0.0,0.0,0.0,1.0,-0.00326658110134,0.00280704465695,-0.0111374650151,1.21846967915e-07,0.0,0.0,0.0,1.21846967915e-07,0.0,0.0,0.0,1.21846967915e-07,0.199271783233,0.082662589848,9.76604270935,9e-08,0.0,0.0,0.0,9e-08,0.0,0.0,0.0,9e-08
1560461061903220430,4478,1560461061896202944,base_link,-0.00552419566613,0.00796315937393,-0.421823445867,-0.906626253114,1.0,0.0,0.0,0.0,1.0,0.0,0.0,0.0,1.0,-0.000814025523141,0.000786186428741,-0.0109447883442,1.21846967915e-07,0.0,0.0,0.0,1.21846967915e-07,0.0,0.0,0.0,1.21846967915e-07,0.17853435874,-0.00886141136289,9.81723690033,9e-08,0.0,0.0,0.0,9e-08,0.0,0.0,0.0,9e-08
1560461061920501284,4479,1560461061916202944,base_link,-0.00554618759534,0.00797056487155,-0.421780772183,-0.906645914619,1.0,0.0,0.0,0.0,1.0,0.0,0.0,0.0,1.0,0.00228818436153,-0.00208083889447,-0.00959227606654,1.21846967915e-07,0.0,0.0,0.0,1.21846967915e-07,0.0,0.0,0.0,1.21846967915e-07,0.194815590978,0.00152376294136,9.78930091858,9e-08,0.0,0.0,0.0,9e-08,0.0,0.0,0.0,9e-08
1560461061940788945,4480,1560461061936202944,base_link,-0.00555698006969,0.00797590542056,-0.421749752102,-0.906660160254,1.0,0.0,0.0,0.0,1.0,0.0,0.0,0.0,1.0,-0.0022850567475,0.00260232156143,-0.00933537911624,1.21846967915e-07,0.0,0.0,0.0,1.21846967915e-07,0.0,0.0,0.0,1.21846967915e-07,0.211457878351,0.0329497307539,9.81630706787,9e-08,0.0,0.0,0.0,9e-08,0.0,0.0,0.0,9e-08
1560461061959603553,4481,1560461061956202944,base_link,-0.0055159648476,0.0079523200606,-0.421704465314,-0.90668167622,1.0,0.0,0.0,0.0,1.0,0.0,0.0,0.0,1.0,-0.00324850459583,0.00281302677467,-0.00974557548761,1.21846967915e-07,0.0,0.0,0.0,1.21846967915e-07,0.0,0.0,0.0,1.21846967915e-07,0.14586135745,0.0109394788742,9.78959274292,9e-08,0.0,0.0,0.0,9e-08,0.0,0.0,0.0,9e-08
1560461061980053907,4482,1560461061976201152,base_link,-0.00552717796725,0.00796513986422,-0.421672665517,-0.906696364397,1.0,0.0,0.0,0.0,1.0,0.0,0.0,0.0,1.0,0.00155881978571,-0.00335295940749,-0.00839281547815,1.21846967915e-07,0.0,0.0,0.0,1.21846967915e-07,0.0,0.0,0.0,1.21846967915e-07,0.200769349933,0.0263577997684,9.83229351044,9e-08,0.0,0.0,0.0,9e-08,0.0,0.0,0.0,9e-08
1560461062002781856,4483,1560461062000201152,base_link,-0.00554232103358,0.00797510314871,-0.421630645109,-0.9067157098,1.0,0.0,0.0,0.0,1.0,0.0,0.0,0.0,1.0,-0.00188406265806,0.00311482325196,-0.00890712160617,1.21846967915e-07,0.0,0.0,0.0,1.21846967915e-07,0.0,0.0,0.0,1.21846967915e-07,0.218764588237,0.0647109299898,9.79231357574,9e-08,0.0,0.0,0.0,9e-08,0.0,0.0,0.0,9e-08
1560461062020125460,4484,1560461062016201152,base_link,-0.00552954773966,0.00795983825165,-0.421601795591,-0.906729386453,1.0,0.0,0.0,0.0,1.0,0.0,0.0,0.0,1.0,-0.000475100474432,0.00206799781881,-0.00891708303243,1.21846967915e-07,0.0,0.0,0.0,1.21846967915e-07,0.0,0.0,0.0,1.21846967915e-07,0.169147461653,0.0173206329346,9.81656932831,9e-08,0.0,0.0,0.0,9e-08,0.0,0.0,0.0,9e-08
1560461062040735770,4485,1560461062036201152,base_link,-0.00553533700443,0.00796389949563,-0.421566729413,-0.906745570843,1.0,0.0,0.0,0.0,1.0,0.0,0.0,0.0,1.0,0.0014419334475,-0.00218644365668,-0.00881225708872,1.21846967915e-07,0.0,0.0,0.0,1.21846967915e-07,0.0,0.0,0.0,1.21846967915e-07,0.205115616322,0.039032228291,9.79229545593,9e-08,0.0,0.0,0.0,9e-08,0.0,0.0,0.0,9e-08
1560461062059443104,4486,1560461062056201152,base_link,-0.00554064668417,0.00797195036688,-0.421525825896,-0.90676438941,1.0,0.0,0.0,0.0,1.0,0.0,0.0,0.0,1.0,-6.87440478941e-05,0.000473841268104,-0.0111490404233,1.21846967915e-07,0.0,0.0,0.0,1.21846967915e-07,0.0,0.0,0.0,1.21846967915e-07,0.195453286171,0.0757675543427,9.8284072876,9e-08,0.0,0.0,0.0,9e-08,0.0,0.0,0.0,9e-08
1560461062081113289,4487,1560461062076196800,base_link,-0.00551452238817,0.00795774012885,-0.42148652396,-0.906783039391,1.0,0.0,0.0,0.0,1.0,0.0,0.0,0.0,1.0,-0.00208190199919,0.00194852892309,-0.00974403321743,1.21846967915e-07,0.0,0.0,0.0,1.21846967915e-07,0.0,0.0,0.0,1.21846967915e-07,0.203867018223,0.00937064737082,9.8507976532,9e-08,0.0,0.0,0.0,9e-08,0.0,0.0,0.0,9e-08
1560461062100853166,4488,1560461062096196800,base_link,-0.00552083799464,0.00796386706232,-0.421447685639,-0.906801057169,1.0,0.0,0.0,0.0,1.0,0.0,0.0,0.0,1.0,0.00142467429396,-0.00229984079488,-0.00986901763827,1.21846967915e-07,0.0,0.0,0.0,1.21846967915e-07,0.0,0.0,0.0,1.21846967915e-07,0.149629473686,0.0379464402795,9.77261543274,9e-08,0.0,0.0,0.0,9e-08,0.0,0.0,0.0,9e-08
1560461062122322004,4489,1560461062118196800,base_link,-0.00553228473296,0.00796963336035,-0.421410870367,-0.906817979128,1.0,0.0,0.0,0.0,1.0,0.0,0.0,0.0,1.0,0.000688463915139,-6.2036444433e-05,-0.00976459681988,1.21846967915e-07,0.0,0.0,0.0,1.21846967915e-07,0.0,0.0,0.0,1.21846967915e-07,0.21345128119,0.052361369133,9.8069858551,9e-08,0.0,0.0,0.0,9e-08,0.0,0.0,0.0,9e-08
1560461062141579156,4490,1560461062138196800,base_link,-0.0055347476071,0.00796353136925,-0.421371779165,-0.906836165493,1.0,0.0,0.0,0.0,1.0,0.0,0.0,0.0,1.0,0.000367832952179,-0.00112697144505,-0.00985776633024,1.21846967915e-07,0.0,0.0,0.0,1.21846967915e-07,0.0,0.0,0.0,1.21846967915e-07,0.180371820927,0.0399110689759,9.79050350189,9e-08,0.0,0.0,0.0,9e-08,0.0,0.0,0.0,9e-08
1560461062160340454,4491,1560461062158196800,base_link,-0.00554170941036,0.00795847539379,-0.421334521351,-0.906853445701,1.0,0.0,0.0,0.0,1.0,0.0,0.0,0.0,1.0,0.000787481898442,0.00121186475735,-0.010296728462,1.21846967915e-07,0.0,0.0,0.0,1.21846967915e-07,0.0,0.0,0.0,1.21846967915e-07,0.192172408104,0.0324710309505,9.81911373138,9e-08,0.0,0.0,0.0,9e-08,0.0,0.0,0.0,9e-08
1560461062180865990,4492,1560461062178194752,base_link,-0.00553638721829,0.00796273074377,-0.421301541442,-0.906868808228,1.0,0.0,0.0,0.0,1.0,0.0,0.0,0.0,1.0,-0.000175712746568,-0.000386064260965,-0.0105888554826,1.21846967915e-07,0.0,0.0,0.0,1.21846967915e-07,0.0,0.0,0.0,1.21846967915e-07,0.180818408728,0.0475901141763,9.8199672699,9e-08,0.0,0.0,0.0,9e-08,0.0,0.0,0.0,9e-08
1560461062201088020,4493,1560461062198194752,base_link,-0.00553864479118,0.00796204972643,-0.421262703121,-0.906886910299,1.0,0.0,0.0,0.0,1.0,0.0,0.0,0.0,1.0,0.00100469519384,0.000364021456335,-0.00996631942689,1.21846967915e-07,0.0,0.0,0.0,1.21846967915e-07,0.0,0.0,0.0,1.21846967915e-07,0.18049544096,0.0440945550799,9.79410648346,9e-08,0.0,0.0,0.0,9e-08,0.0,0.0,0.0,9e-08
1560461062220315188,4494,1560461062218194752,base_link,-0.00554709548126,0.00796506956459,-0.421224391636,-0.906904569829,1.0,0.0,0.0,0.0,1.0,0.0,0.0,0.0,1.0,0.000357254175469,-0.00197762669995,-0.00951149594039,1.21846967915e-07,0.0,0.0,0.0,1.21846967915e-07,0.0,0.0,0.0,1.21846967915e-07,0.188672751188,0.0106049403548,9.80822181702,9e-08,0.0,0.0,0.0,9e-08,0.0,0.0,0.0,9e-08
1560461062241196164,4495,1560461062238194752,base_link,-0.00554857341977,0.00796926827974,-0.421186944161,-0.90692187111,1.0,0.0,0.0,0.0,1.0,0.0,0.0,0.0,1.0,-0.000166903540958,0.0013226805022,-0.0102818161249,1.21846967915e-07,0.0,0.0,0.0,1.21846967915e-07,0.0,0.0,0.0,1.21846967915e-07,0.19027993083,0.0456275567412,9.80427265167,9e-08,0.0,0.0,0.0,9e-08,0.0,0.0,0.0,9e-08
1560461062260975637,4496,1560461062258194752,base_link,-0.00554363137251,0.0079616795421,-0.421147220756,-0.906940436797,1.0,0.0,0.0,0.0,1.0,0.0,0.0,0.0,1.0,0.000684301252477,0.00239140633494,-0.00975316483527,1.21846967915e-07,0.0,0.0,0.0,1.21846967915e-07,0.0,0.0,0.0,1.21846967915e-07,0.189554587007,0.00767692923546,9.82686424255,9e-08,0.0,0.0,0.0,9e-08,0.0,0.0,0.0,9e-08
1560461062281158096,4497,1560461062278192448,base_link,-0.00554246138587,0.00796219625258,-0.421112049211,-0.906956810847,1.0,0.0,0.0,0.0,1.0,0.0,0.0,0.0,1.0,3.88967455365e-05,0.000784086820204,-0.0105832722038,1.21846967915e-07,0.0,0.0,0.0,1.21846967915e-07,0.0,0.0,0.0,1.21846967915e-07,0.204375818372,0.0110570117831,9.80667209625,9e-08,0.0,0.0,0.0,9e-08,0.0,0.0,0.0,9e-08
1560461062300934547,4498,1560461062298192448,base_link,-0.00554720076606,0.00795663896012,-0.421081239865,-0.906971098629,1.0,0.0,0.0,0.0,1.0,0.0,0.0,0.0,1.0,0.00111700571142,5.11427642778e-05,-0.00930103473365,1.21846967915e-07,0.0,0.0,0.0,1.21846967915e-07,0.0,0.0,0.0,1.21846967915e-07,0.207238152623,0.0435345545411,9.82455348969,9e-08,0.0,0.0,0.0,9e-08,0.0,0.0,0.0,9e-08
1560461062321080832,4499,1560461062318192448,base_link,-0.00554084490606,0.00795718382338,-0.421043033747,-0.906988821379,1.0,0.0,0.0,0.0,1.0,0.0,0.0,0.0,1.0,-0.000370034889784,0.000573501863983,-0.00937739107758,1.21846967915e-07,0.0,0.0,0.0,1.21846967915e-07,0.0,0.0,0.0,1.21846967915e-07,0.208710804582,0.00496879220009,9.82974243164,9e-08,0.0,0.0,0.0,9e-08,0.0,0.0,0.0,9e-08
1560461062340691702,4500,1560461062338192448,base_link,-0.00554014676657,0.00796820135531,-0.421018167106,-0.907000369615,1.0,0.0,0.0,0.0,1.0,0.0,0.0,0.0,1.0,-0.00101133633871,-0.00112593604717,-0.00946890190244,1.21846967915e-07,0.0,0.0,0.0,1.21846967915e-07,0.0,0.0,0.0,1.21846967915e-07,0.21576847136,0.0357822030783,9.7602596283,9e-08,0.0,0.0,0.0,9e-08,0.0,0.0,0.0,9e-08
1560461062361481336,4501,1560461062358192448,base_link,-0.00553433214783,0.00795762348416,-0.420980445677,-0.907017944851,1.0,0.0,0.0,0.0,1.0,0.0,0.0,0.0,1.0,-0.00112081679981,0.00270803296007,-0.00969708617777,1.21846967915e-07,0.0,0.0,0.0,1.21846967915e-07,0.0,0.0,0.0,1.21846967915e-07,0.172076165676,0.0266732871532,9.80391597748,9e-08,0.0,0.0,0.0,9e-08,0.0,0.0,0.0,9e-08
1560461062381034763,4502,1560461062378190144,base_link,-0.00553354247065,0.00795787447193,-0.420947360401,-0.907033328451,1.0,0.0,0.0,0.0,1.0,0.0,0.0,0.0,1.0,0.000469649035949,-0.000489394064061,-0.0100212264806,1.21846967915e-07,0.0,0.0,0.0,1.21846967915e-07,0.0,0.0,0.0,1.21846967915e-07,0.194987922907,0.0408787801862,9.79418945312,9e-08,0.0,0.0,0.0,9e-08,0.0,0.0,0.0,9e-08
1560461062401762596,4503,1560461062398190144,base_link,-0.00553612585844,0.0079607517352,-0.420918300148,-0.907046794369,1.0,0.0,0.0,0.0,1.0,0.0,0.0,0.0,1.0,0.000255538558122,-0.000381395424483,-0.0102281793952,1.21846967915e-07,0.0,0.0,0.0,1.21846967915e-07,0.0,0.0,0.0,1.21846967915e-07,0.184292420745,0.0317489132285,9.84595966339,9e-08,0.0,0.0,0.0,9e-08,0.0,0.0,0.0,9e-08
1560461062420268810,4504,1560461062418190144,base_link,-0.0055432876946,0.00796695045002,-0.420887301141,-0.907061103224,1.0,0.0,0.0,0.0,1.0,0.0,0.0,0.0,1.0,0.000271146418527,-0.00176823604852,-0.00904997065663,1.21846967915e-07,0.0,0.0,0.0,1.21846967915e-07,0.0,0.0,0.0,1.21846967915e-07,0.1902551651,0.0424891933799,9.82752132416,9e-08,0.0,0.0,0.0,9e-08,0.0,0.0,0.0,9e-08
1560461062441085593,4505,1560461062438190144,base_link,-0.00554079148164,0.00797759549272,-0.4208544266,-0.907076191796,1.0,0.0,0.0,0.0,1.0,0.0,0.0,0.0,1.0,-0.00229824427515,-0.000599956605583,-0.0105095822364,1.21846967915e-07,0.0,0.0,0.0,1.21846967915e-07,0.0,0.0,0.0,1.21846967915e-07,0.182867243886,0.032027810812,9.8467092514,9e-08,0.0,0.0,0.0,9e-08,0.0,0.0,0.0,9e-08
1560461062461028779,4506,1560461062458190144,base_link,-0.00551592393552,0.00797094509869,-0.420812258678,-0.907095937594,1.0,0.0,0.0,0.0,1.0,0.0,0.0,0.0,1.0,-0.00115091446787,0.00270056398585,-0.0119212158024,1.21846967915e-07,0.0,0.0,0.0,1.21846967915e-07,0.0,0.0,0.0,1.21846967915e-07,0.18826380372,0.00715804845095,9.81596374512,9e-08,0.0,0.0,0.0,9e-08,0.0,0.0,0.0,9e-08
1560461062482513783,4507,1560461062480188096,base_link,-0.00551637388605,0.00797561467316,-0.420781322891,-0.907110351816,1.0,0.0,0.0,0.0,1.0,0.0,0.0,0.0,1.0,-5.25759533048e-05,-0.00081090599997,-0.00936118047684,1.21846967915e-07,0.0,0.0,0.0,1.21846967915e-07,0.0,0.0,0.0,1.21846967915e-07,0.189039751887,0.0439028069377,9.8287563324,9e-08,0.0,0.0,0.0,9e-08,0.0,0.0,0.0,9e-08
1560461062500369311,4508,1560461062496188096,base_link,-0.00552361795796,0.00797222440371,-0.420757088453,-0.907121605025,1.0,0.0,0.0,0.0,1.0,0.0,0.0,0.0,1.0,-0.00048389704898,0.000573797733523,-0.00978330429643,1.21846967915e-07,0.0,0.0,0.0,1.21846967915e-07,0.0,0.0,0.0,1.21846967915e-07,0.186867073178,0.0621965676546,9.77922153473,9e-08,0.0,0.0,0.0,9e-08,0.0,0.0,0.0,9e-08
1560461062522764378,4509,1560461062520188096,base_link,-0.00550205128387,0.00796546707852,-0.42072088431,-0.907138505911,1.0,0.0,0.0,0.0,1.0,0.0,0.0,0.0,1.0,-0.000689960201271,0.00121244660113,-0.00967251509428,1.21846967915e-07,0.0,0.0,0.0,1.21846967915e-07,0.0,0.0,0.0,1.21846967915e-07,0.180993109941,-0.0357899516821,9.83839702606,9e-08,0.0,0.0,0.0,9e-08,0.0,0.0,0.0,9e-08
1560461062539542568,4510,1560461062536188096,base_link,-0.00552166710217,0.00797092204963,-0.420697935351,-0.907148979403,1.0,0.0,0.0,0.0,1.0,0.0,0.0,0.0,1.0,0.00198205653578,-0.00186761608347,-0.00841537117958,1.21846967915e-07,0.0,0.0,0.0,1.21846967915e-07,0.0,0.0,0.0,1.21846967915e-07,0.209290862083,0.0366417393088,9.81342697144,9e-08,0.0,0.0,0.0,9e-08,0.0,0.0,0.0,9e-08
1560461062564340636,4511,1560461062560184256,base_link,-0.00550649473062,0.00797157351479,-0.420673110857,-0.907160569786,1.0,0.0,0.0,0.0,1.0,0.0,0.0,0.0,1.0,-0.00377001287416,0.00153535429854,-0.00920712482184,1.21846967915e-07,0.0,0.0,0.0,1.21846967915e-07,0.0,0.0,0.0,1.21846967915e-07,0.194992959499,0.0580153986812,9.81492900848,9e-08,0.0,0.0,0.0,9e-08,0.0,0.0,0.0,9e-08
1560461062579820489,4512,1560461062576184256,base_link,-0.00547825346098,0.00796496592615,-0.420642322584,-0.907175173669,1.0,0.0,0.0,0.0,1.0,0.0,0.0,0.0,1.0,-0.000813425052911,0.000995274633169,-0.0105152651668,1.21846967915e-07,0.0,0.0,0.0,1.21846967915e-07,0.0,0.0,0.0,1.21846967915e-07,0.162926614285,0.0039691850543,9.83510971069,9e-08,0.0,0.0,0.0,9e-08,0.0,0.0,0.0,9e-08
1560461062603092760,4513,1560461062600184256,base_link,-0.00550663919882,0.00798179190296,-0.420605844487,-0.907191674161,1.0,0.0,0.0,0.0,1.0,0.0,0.0,0.0,1.0,0.00262013054453,-0.00261966860853,-0.00809634663165,1.21846967915e-07,0.0,0.0,0.0,1.21846967915e-07,0.0,0.0,0.0,1.21846967915e-07,0.211922049522,0.0387888550758,9.86632919312,9e-08,0.0,0.0,0.0,9e-08,0.0,0.0,0.0,9e-08
1560461062620337763,4514,1560461062616184256,base_link,-0.00550795093716,0.00798216998983,-0.420585192531,-0.907201283642,1.0,0.0,0.0,0.0,1.0,0.0,0.0,0.0,1.0,-0.00260215695016,0.00227937335148,-0.00900404993445,1.21846967915e-07,0.0,0.0,0.0,1.21846967915e-07,0.0,0.0,0.0,1.21846967915e-07,0.210463061929,0.0671052485704,9.82189083099,9e-08,0.0,0.0,0.0,9e-08,0.0,0.0,0.0,9e-08
1560461062642672810,4515,1560461062636184256,base_link,-0.00547199942843,0.00796555911011,-0.420544204721,-0.907220692266,1.0,0.0,0.0,0.0,1.0,0.0,0.0,0.0,1.0,-0.00124469492584,0.00312172994018,-0.0109294643626,1.21846967915e-07,0.0,0.0,0.0,1.21846967915e-07,0.0,0.0,0.0,1.21846967915e-07,0.157930582762,0.0290317907929,9.7987947464,9e-08,0.0,0.0,0.0,9e-08,0.0,0.0,0.0,9e-08
1560461062662477779,4516,1560461062660182208,base_link,-0.00550159268994,0.00798036360224,-0.420518326556,-0.907232240502,1.0,0.0,0.0,0.0,1.0,0.0,0.0,0.0,1.0,0.00315429829061,-0.00399515777826,-0.00828059390187,1.21846967915e-07,0.0,0.0,0.0,1.21846967915e-07,0.0,0.0,0.0,1.21846967915e-07,0.192083895206,0.0669892802835,9.88248443604,9e-08,0.0,0.0,0.0,9e-08,0.0,0.0,0.0,9e-08
1560461062679738071,4517,1560461062676182208,base_link,-0.0055068423598,0.00798260421761,-0.420493396695,-0.907243851959,1.0,0.0,0.0,0.0,1.0,0.0,0.0,0.0,1.0,-0.00230059586465,0.00216795923188,-0.0102574918419,1.21846967915e-07,0.0,0.0,0.0,1.21846967915e-07,0.0,0.0,0.0,1.21846967915e-07,0.221426025033,0.0797531306744,9.85701656342,9e-08,0.0,0.0,0.0,9e-08,0.0,0.0,0.0,9e-08
1560461062702332808,4518,1560461062700182208,base_link,-0.00544295514608,0.00796525733209,-0.42045268284,-0.907263239509,1.0,0.0,0.0,0.0,1.0,0.0,0.0,0.0,1.0,-0.00219806865789,0.00311843631789,-0.0105811050162,1.21846967915e-07,0.0,0.0,0.0,1.21846967915e-07,0.0,0.0,0.0,1.21846967915e-07,0.158347561955,-0.0238819345832,9.7722492218,9e-08,0.0,0.0,0.0,9e-08,0.0,0.0,0.0,9e-08
1560461062723123260,4519,1560461062720182208,base_link,-0.00547150873045,0.0079772595527,-0.420424360157,-0.907276052151,1.0,0.0,0.0,0.0,1.0,0.0,0.0,0.0,1.0,0.00367547990754,-0.0034596119076,-0.00891827046871,1.21846967915e-07,0.0,0.0,0.0,1.21846967915e-07,0.0,0.0,0.0,1.21846967915e-07,0.205724209547,0.051532946527,9.81051826477,9e-08,0.0,0.0,0.0,9e-08,0.0,0.0,0.0,9e-08
1560461062739008629,4520,1560461062736182208,base_link,-0.00549596871984,0.00798534878417,-0.420406047352,-0.907284249713,1.0,0.0,0.0,0.0,1.0,0.0,0.0,0.0,1.0,5.10692334501e-05,0.00238389498554,-0.00953683350235,1.21846967915e-07,0.0,0.0,0.0,1.21846967915e-07,0.0,0.0,0.0,1.21846967915e-07,0.210788607597,0.0692337751389,9.82943248749,9e-08,0.0,0.0,0.0,9e-08,0.0,0.0,0.0,9e-08
1560461062763879360,4521,1560461062760178368,base_link,-0.00543979898921,0.0079705076605,-0.420366387167,-0.907303089355,1.0,0.0,0.0,0.0,1.0,0.0,0.0,0.0,1.0,-0.00121606595349,0.00249452656135,-0.00963041558862,1.21846967915e-07,0.0,0.0,0.0,1.21846967915e-07,0.0,0.0,0.0,1.21846967915e-07,0.176204189658,0.00404320657253,9.84302043915,9e-08,0.0,0.0,0.0,9e-08,0.0,0.0,0.0,9e-08
1560461062780190867,4522,1560461062776178368,base_link,-0.0054436898348,0.00797033232302,-0.420344007191,-0.907313499626,1.0,0.0,0.0,0.0,1.0,0.0,0.0,0.0,1.0,0.00315069616772,-0.00261624366976,-0.0086965225637,1.21846967915e-07,0.0,0.0,0.0,1.21846967915e-07,0.0,0.0,0.0,1.21846967915e-07,0.179638206959,-0.0218972712755,9.78022289276,9e-08,0.0,0.0,0.0,9e-08,0.0,0.0,0.0,9e-08
1560461062802562459,4523,1560461062800178368,base_link,-0.00547605935532,0.00798434014094,-0.420315747729,-0.907326333342,1.0,0.0,0.0,0.0,1.0,0.0,0.0,0.0,1.0,0.00068079913035,0.000885921530426,-0.0101603092626,1.21846967915e-07,0.0,0.0,0.0,1.21846967915e-07,0.0,0.0,0.0,1.21846967915e-07,0.19179071486,0.0659608617425,9.7920665741,9e-08,0.0,0.0,0.0,9e-08,0.0,0.0,0.0,9e-08
1560461062821095801,4524,1560461062816178368,base_link,-0.00544662727258,0.00798043011524,-0.420283252509,-0.907341548354,1.0,0.0,0.0,0.0,1.0,0.0,0.0,0.0,1.0,-0.00370497955009,0.00182753382251,-0.0104865599424,1.21846967915e-07,0.0,0.0,0.0,1.21846967915e-07,0.0,0.0,0.0,1.21846967915e-07,0.162013292313,0.0272778868675,9.83168983459,9e-08,0.0,0.0,0.0,9e-08,0.0,0.0,0.0,9e-08
1560461062839923342,4525,1560461062837178368,base_link,-0.00543175956017,0.00797860899272,-0.420255309148,-0.907354656024,1.0,0.0,0.0,0.0,1.0,0.0,0.0,0.0,1.0,0.00156630156562,-0.000376694399165,-0.00772209884599,1.21846967915e-07,0.0,0.0,0.0,1.21846967915e-07,0.0,0.0,0.0,1.21846967915e-07,0.194020390511,0.00389619916678,9.81905651093,9e-08,0.0,0.0,0.0,9e-08,0.0,0.0,0.0,9e-08
1560461062861966546,4526,1560461062857176064,base_link,-0.00546177437249,0.00799624777809,-0.420221085907,-0.90737008177,1.0,0.0,0.0,0.0,1.0,0.0,0.0,0.0,1.0,0.00121444172692,-0.00134911586065,-0.0100548118353,1.21846967915e-07,0.0,0.0,0.0,1.21846967915e-07,0.0,0.0,0.0,1.21846967915e-07,0.191120356321,0.0327545329928,9.80983638763,9e-08,0.0,0.0,0.0,9e-08,0.0,0.0,0.0,9e-08
1560461062880903138,4527,1560461062877176064,base_link,-0.00543855697427,0.00799053136481,-0.420186841593,-0.90738620294,1.0,0.0,0.0,0.0,1.0,0.0,0.0,0.0,1.0,-0.00230276724324,0.00259182858281,-0.0107632949948,1.21846967915e-07,0.0,0.0,0.0,1.21846967915e-07,0.0,0.0,0.0,1.21846967915e-07,0.210912540555,0.0310429930687,9.82745170593,9e-08,0.0,0.0,0.0,9e-08,0.0,0.0,0.0,9e-08
1560461062900543468,4528,1560461062897176064,base_link,-0.00542795597173,0.00798572374295,-0.420150258128,-0.907403230267,1.0,0.0,0.0,0.0,1.0,0.0,0.0,0.0,1.0,0.00164233311079,-0.000603859603871,-0.0101542193443,1.21846967915e-07,0.0,0.0,0.0,1.21846967915e-07,0.0,0.0,0.0,1.21846967915e-07,0.204217225313,-0.00644122809172,9.85857486725,9e-08,0.0,0.0,0.0,9e-08,0.0,0.0,0.0,9e-08
1560461062921983858,4529,1560461062917176064,base_link,-0.00546033092524,0.00800453218569,-0.420129205777,-0.907412565794,1.0,0.0,0.0,0.0,1.0,0.0,0.0,0.0,1.0,0.000926789070945,-0.00196835887618,-0.00758388545364,1.21846967915e-07,0.0,0.0,0.0,1.21846967915e-07,0.0,0.0,0.0,1.21846967915e-07,0.233309686184,0.0507726147771,9.78957366943,9e-08,0.0,0.0,0.0,9e-08,0.0,0.0,0.0,9e-08
1560461062941633913,4530,1560461062937176064,base_link,-0.00544076737891,0.00800104535715,-0.420090852145,-0.907430520351,1.0,0.0,0.0,0.0,1.0,0.0,0.0,0.0,1.0,-0.00338976853527,0.00321915000677,-0.0117057682946,1.21846967915e-07,0.0,0.0,0.0,1.21846967915e-07,0.0,0.0,0.0,1.21846967915e-07,0.21298199892,0.070022650063,9.79230499268,9e-08,0.0,0.0,0.0,9e-08,0.0,0.0,0.0,9e-08
1560461062961019657,4531,1560461062957176064,base_link,-0.00543253549024,0.00799623147912,-0.420052393146,-0.907448411688,1.0,0.0,0.0,0.0,1.0,0.0,0.0,0.0,1.0,0.0016241739504,-0.00367408804595,-0.0101459864527,1.21846967915e-07,0.0,0.0,0.0,1.21846967915e-07,0.0,0.0,0.0,1.21846967915e-07,0.182355433702,-0.0296145826578,9.88218688965,9e-08,0.0,0.0,0.0,9e-08,0.0,0.0,0.0,9e-08
1560461062981265341,4532,1560461062977174016,base_link,-0.00546421370366,0.00802316372691,-0.42002478696,-0.907460676421,1.0,0.0,0.0,0.0,1.0,0.0,0.0,0.0,1.0,0.000786008255091,-0.00124880683143,-0.0100275669247,1.21846967915e-07,0.0,0.0,0.0,1.21846967915e-07,0.0,0.0,0.0,1.21846967915e-07,0.219700574875,0.107639484107,9.76789093018,9e-08,0.0,0.0,0.0,9e-08,0.0,0.0,0.0,9e-08
1560461062999784837,4533,1560461062997174016,base_link,-0.00543526128828,0.00800038351992,-0.419984368132,-0.907479853237,1.0,0.0,0.0,0.0,1.0,0.0,0.0,0.0,1.0,-0.00113810878247,0.0042958650738,-0.0108571927994,1.21846967915e-07,0.0,0.0,0.0,1.21846967915e-07,0.0,0.0,0.0,1.21846967915e-07,0.182832330465,-0.0114504359663,9.85533809662,9e-08,0.0,0.0,0.0,9e-08,0.0,0.0,0.0,9e-08
1560461063020819798,4534,1560461063017174016,base_link,-0.00544349111899,0.00800813524732,-0.419958658555,-0.907491654355,1.0,0.0,0.0,0.0,1.0,0.0,0.0,0.0,1.0,0.00283093121834,-0.00506284832954,-0.00851984322071,1.21846967915e-07,0.0,0.0,0.0,1.21846967915e-07,0.0,0.0,0.0,1.21846967915e-07,0.188754379749,0.0252715200186,9.79955101013,9e-08,0.0,0.0,0.0,9e-08,0.0,0.0,0.0,9e-08
1560461063039999848,4535,1560461063037174016,base_link,-0.00546787430563,0.00801161507882,-0.419942115917,-0.907499177567,1.0,0.0,0.0,0.0,1.0,0.0,0.0,0.0,1.0,-0.000383628415875,0.00184932746924,-0.00989889446646,1.21846967915e-07,0.0,0.0,0.0,1.21846967915e-07,0.0,0.0,0.0,1.21846967915e-07,0.226261541247,0.0581427589059,9.82033729553,9e-08,0.0,0.0,0.0,9e-08,0.0,0.0,0.0,9e-08
1560461063061770888,4536,1560461063057172224,base_link,-0.00542728260997,0.00800002502475,-0.419906270022,-0.907515973087,1.0,0.0,0.0,0.0,1.0,0.0,0.0,0.0,1.0,-0.00389985507354,0.00194814661518,-0.0106959883124,1.21846967915e-07,0.0,0.0,0.0,1.21846967915e-07,0.0,0.0,0.0,1.21846967915e-07,0.182864546776,0.0120776519179,9.85454940796,9e-08,0.0,0.0,0.0,9e-08,0.0,0.0,0.0,9e-08
1560461063080964504,4537,1560461063077172224,base_link,-0.00543123782829,0.0080090484016,-0.419884290441,-0.907526067257,1.0,0.0,0.0,0.0,1.0,0.0,0.0,0.0,1.0,0.0016574912006,-0.00155679089949,-0.00893565360457,1.21846967915e-07,0.0,0.0,0.0,1.21846967915e-07,0.0,0.0,0.0,1.21846967915e-07,0.15561029315,0.0458497554064,9.84167385101,9e-08,0.0,0.0,0.0,9e-08,0.0,0.0,0.0,9e-08
1560461063103584474,4538,1560461063101172224,base_link,-0.00546083043125,0.00801467344184,-0.419850488668,-0.907541493003,1.0,0.0,0.0,0.0,1.0,0.0,0.0,0.0,1.0,0.00154849723913,-0.000701011624187,-0.00883357319981,1.21846967915e-07,0.0,0.0,0.0,1.21846967915e-07,0.0,0.0,0.0,1.21846967915e-07,0.166117548943,-0.00548471882939,9.84072494507,9e-08,0.0,0.0,0.0,9e-08,0.0,0.0,0.0,9e-08
1560461063119861888,4539,1560461063117172224,base_link,-0.0054619157126,0.00802272085572,-0.419833313827,-0.907549395537,1.0,0.0,0.0,0.0,1.0,0.0,0.0,0.0,1.0,-0.000361428130418,-0.000701810000464,-0.00880641583353,1.21846967915e-07,0.0,0.0,0.0,1.21846967915e-07,0.0,0.0,0.0,1.21846967915e-07,0.220770597458,0.0428769215941,9.804022789,9e-08,0.0,0.0,0.0,9e-08,0.0,0.0,0.0,9e-08
1560461063142082176,4540,1560461063137172224,base_link,-0.00544876136837,0.00802335231759,-0.419802167306,-0.907563851906,1.0,0.0,0.0,0.0,1.0,0.0,0.0,0.0,1.0,-0.00136550399475,0.00151556916535,-0.0109393317252,1.21846967915e-07,0.0,0.0,0.0,1.21846967915e-07,0.0,0.0,0.0,1.21846967915e-07,0.203909784555,0.0023894533515,9.79526424408,9e-08,0.0,0.0,0.0,9e-08,0.0,0.0,0.0,9e-08
1560461063159872713,4541,1560461063157172224,base_link,-0.00546016093844,0.00801919542002,-0.419774835075,-0.907576432741,1.0,0.0,0.0,0.0,1.0,0.0,0.0,0.0,1.0,0.000914463133086,-0.000705730053596,-0.00882261246443,1.21846967915e-07,0.0,0.0,0.0,1.21846967915e-07,0.0,0.0,0.0,1.21846967915e-07,0.217295646667,0.0189905539155,9.80895900726,9e-08,0.0,0.0,0.0,9e-08,0.0,0.0,0.0,9e-08
1560461063181248832,4542,1560461063178170176,base_link,-0.00546760216211,0.00803419212483,-0.419746912788,-0.907589266456,1.0,0.0,0.0,0.0,1.0,0.0,0.0,0.0,1.0,-0.00207771663554,0.000673361471854,-0.00984740164131,1.21846967915e-07,0.0,0.0,0.0,1.21846967915e-07,0.0,0.0,0.0,1.21846967915e-07,0.207538276911,0.0696845054626,9.86683750153,9e-08,0.0,0.0,0.0,9e-08,0.0,0.0,0.0,9e-08
1560461063200839429,4543,1560461063198170176,base_link,-0.00544171173173,0.0080280667554,-0.41971658813,-0.907603406724,1.0,0.0,0.0,0.0,1.0,0.0,0.0,0.0,1.0,-0.00368294655345,0.00131922075525,-0.00993139576167,1.21846967915e-07,0.0,0.0,0.0,1.21846967915e-07,0.0,0.0,0.0,1.21846967915e-07,0.171525359154,0.0266250520945,9.80530261993,9e-08,0.0,0.0,0.0,9e-08,0.0,0.0,0.0,9e-08
1560461063220871887,4544,1560461063218170176,base_link,-0.00544475996962,0.00804550715424,-0.419697664195,-0.907611962534,1.0,0.0,0.0,0.0,1.0,0.0,0.0,0.0,1.0,-5.7122510043e-05,-0.00123618391808,-0.00890077091753,1.21846967915e-07,0.0,0.0,0.0,1.21846967915e-07,0.0,0.0,0.0,1.21846967915e-07,0.216207101941,0.00959851592779,9.82590293884,9e-08,0.0,0.0,0.0,9e-08,0.0,0.0,0.0,9e-08
1560461063240655946,4545,1560461063238170176,base_link,-0.00546109475455,0.00804603901125,-0.419670795579,-0.907624416928,1.0,0.0,0.0,0.0,1.0,0.0,0.0,0.0,1.0,0.00152752781287,0.000459691393189,-0.0104211596772,1.21846967915e-07,0.0,0.0,0.0,1.21846967915e-07,0.0,0.0,0.0,1.21846967915e-07,0.210139125586,0.0395893529058,9.83534908295,9e-08,0.0,0.0,0.0,9e-08,0.0,0.0,0.0,9e-08
1560461063261201878,4546,1560461063258170176,base_link,-0.00545286846352,0.00804570554078,-0.419645654984,-0.907635986238,1.0,0.0,0.0,0.0,1.0,0.0,0.0,0.0,1.0,-0.00165734940674,0.000683498510625,-0.00898705329746,1.21846967915e-07,0.0,0.0,0.0,1.21846967915e-07,0.0,0.0,0.0,1.21846967915e-07,0.204614520073,0.0181852728128,9.84910106659,9e-08,0.0,0.0,0.0,9e-08,0.0,0.0,0.0,9e-08
1560461063281189663,4547,1560461063278168128,base_link,-0.00543061031769,0.00804439306157,-0.419616299704,-0.90764966289,1.0,0.0,0.0,0.0,1.0,0.0,0.0,0.0,1.0,-0.00123606179841,0.000569602765609,-0.0101616382599,1.21846967915e-07,0.0,0.0,0.0,1.21846967915e-07,0.0,0.0,0.0,1.21846967915e-07,0.2165504843,0.0317784994841,9.81462192535,9e-08,0.0,0.0,0.0,9e-08,0.0,0.0,0.0,9e-08
1560461063300902051,4548,1560461063298168128,base_link,-0.00544038410601,0.00804806148375,-0.419586712617,-0.907663402763,1.0,0.0,0.0,0.0,1.0,0.0,0.0,0.0,1.0,0.00239838869311,-0.00272560794838,-0.00859697069973,1.21846967915e-07,0.0,0.0,0.0,1.21846967915e-07,0.0,0.0,0.0,1.21846967915e-07,0.168206095695,0.00303903222084,9.86193275452,9e-08,0.0,0.0,0.0,9e-08,0.0,0.0,0.0,9e-08
1560461063321712920,4549,1560461063318168128,base_link,-0.00546870711748,0.00805324258267,-0.419561803829,-0.907674571677,1.0,0.0,0.0,0.0,1.0,0.0,0.0,0.0,1.0,-0.000170535320649,0.000564512738492,-0.0101736122742,1.21846967915e-07,0.0,0.0,0.0,1.21846967915e-07,0.0,0.0,0.0,1.21846967915e-07,0.204795658588,0.0811156779528,9.77756977081,9e-08,0.0,0.0,0.0,9e-08,0.0,0.0,0.0,9e-08
1560461063341626302,4550,1560461063338168128,base_link,-0.00543005730494,0.00803849892359,-0.419526063302,-0.907691430417,1.0,0.0,0.0,0.0,1.0,0.0,0.0,0.0,1.0,-0.0027392662596,0.00216417014599,-0.0105725321919,1.21846967915e-07,0.0,0.0,0.0,1.21846967915e-07,0.0,0.0,0.0,1.21846967915e-07,0.160526931286,0.00626026839018,9.81424617767,9e-08,0.0,0.0,0.0,9e-08,0.0,0.0,0.0,9e-08
1560461063360817694,4551,1560461063358168128,base_link,-0.00544417353574,0.00804934152964,-0.419506254283,-0.907700534136,1.0,0.0,0.0,0.0,1.0,0.0,0.0,0.0,1.0,0.00401256000623,-0.00410521309823,-0.0075342352502,1.21846967915e-07,0.0,0.0,0.0,1.21846967915e-07,0.0,0.0,0.0,1.21846967915e-07,0.194677740335,0.00744634866715,9.86066532135,9e-08,0.0,0.0,0.0,9e-08,0.0,0.0,0.0,9e-08
1560461063381958870,4552,1560461063378166336,base_link,-0.00545604503527,0.00805948385593,-0.419484443289,-0.907710459719,1.0,0.0,0.0,0.0,1.0,0.0,0.0,0.0,1.0,-0.000931295799091,0.00162206601817,-0.0111003555357,1.21846967915e-07,0.0,0.0,0.0,1.21846967915e-07,0.0,0.0,0.0,1.21846967915e-07,0.232412397861,0.0461769253016,9.7892408371,9e-08,0.0,0.0,0.0,9e-08,0.0,0.0,0.0,9e-08
1560461063400583738,4553,1560461063398166336,base_link,-0.00541837793577,0.00804221517257,-0.419449545698,-0.90772689699,1.0,0.0,0.0,0.0,1.0,0.0,0.0,0.0,1.0,-0.00143828929868,0.00173931836616,-0.00960954278708,1.21846967915e-07,0.0,0.0,0.0,1.21846967915e-07,0.0,0.0,0.0,1.21846967915e-07,0.177685067058,-0.0312160328031,9.84330272675,9e-08,0.0,0.0,0.0,9e-08,0.0,0.0,0.0,9e-08
1560461063421936368,4554,1560461063418166336,base_link,-0.00544020810999,0.00805097834202,-0.419424931939,-0.907738023758,1.0,0.0,0.0,0.0,1.0,0.0,0.0,0.0,1.0,0.00249947281554,-0.00358087359928,-0.00931097194552,1.21846967915e-07,0.0,0.0,0.0,1.21846967915e-07,0.0,0.0,0.0,1.21846967915e-07,0.209986239672,0.0233343616128,9.81809616089,9e-08,0.0,0.0,0.0,9e-08,0.0,0.0,0.0,9e-08
1560461063439166532,4555,1560461063434166336,base_link,-0.00546726037751,0.00806256946622,-0.419403458119,-0.90774769646,1.0,0.0,0.0,0.0,1.0,0.0,0.0,0.0,1.0,0.00131166819483,2.89725721814e-05,-0.0111314542592,1.21846967915e-07,0.0,0.0,0.0,1.21846967915e-07,0.0,0.0,0.0,1.21846967915e-07,0.250050991774,0.0665977150202,9.83319568634,9e-08,0.0,0.0,0.0,9e-08,0.0,0.0,0.0,9e-08
1560461063462137231,4556,1560461063459164288,base_link,-0.00542667954784,0.00804427114852,-0.419366200305,-0.907765398136,1.0,0.0,0.0,0.0,1.0,0.0,0.0,0.0,1.0,-0.00164433731697,0.00269830273464,-0.00886155106127,1.21846967915e-07,0.0,0.0,0.0,1.21846967915e-07,0.0,0.0,0.0,1.21846967915e-07,0.188695847988,-0.00523757562041,9.82422542572,9e-08,0.0,0.0,0.0,9e-08,0.0,0.0,0.0,9e-08
1560461063481867882,4557,1560461063479164288,base_link,-0.0054337630172,0.00805452057061,-0.419330312264,-0.907781814333,1.0,0.0,0.0,0.0,1.0,0.0,0.0,0.0,1.0,0.00294658797793,-0.00284776557237,-0.00881317909807,1.21846967915e-07,0.0,0.0,0.0,1.21846967915e-07,0.0,0.0,0.0,1.21846967915e-07,0.195235431194,0.0186576321721,9.84702396393,9e-08,0.0,0.0,0.0,9e-08,0.0,0.0,0.0,9e-08
1560461063501761799,4558,1560461063499164288,base_link,-0.0054567305801,0.00805538309928,-0.41929773275,-0.907796607877,1.0,0.0,0.0,0.0,1.0,0.0,0.0,0.0,1.0,-0.000265349110123,0.000141979486216,-0.00960339512676,1.21846967915e-07,0.0,0.0,0.0,1.21846967915e-07,0.0,0.0,0.0,1.21846967915e-07,0.174909412861,0.0155491828918,9.81691837311,9e-08,0.0,0.0,0.0,9e-08,0.0,0.0,0.0,9e-08
1560461063521883984,4559,1560461063519164288,base_link,-0.00544808899443,0.00805615771225,-0.419259442338,-0.907814414921,1.0,0.0,0.0,0.0,1.0,0.0,0.0,0.0,1.0,0.000239450688241,0.00119773193728,-0.0113149788231,1.21846967915e-07,0.0,0.0,0.0,1.21846967915e-07,0.0,0.0,0.0,1.21846967915e-07,0.174105018377,0.0261502638459,9.83106899261,9e-08,0.0,0.0,0.0,9e-08,0.0,0.0,0.0,9e-08
1560461063543018214,4560,1560461063540164288,base_link,-0.00545708800513,0.00806238556767,-0.419227832202,-0.907828913437,1.0,0.0,0.0,0.0,1.0,0.0,0.0,0.0,1.0,0.00176733196713,-0.00272942963056,-0.00876080431044,1.21846967915e-07,0.0,0.0,0.0,1.21846967915e-07,0.0,0.0,0.0,1.21846967915e-07,0.173754051328,0.0179239735007,9.80238246918,9e-08,0.0,0.0,0.0,9e-08,0.0,0.0,0.0,9e-08
1560461063559276549,4561,1560461063556164288,base_link,-0.00547648312871,0.00806754361752,-0.419207117026,-0.907838333257,1.0,0.0,0.0,0.0,1.0,0.0,0.0,0.0,1.0,0.000808803888503,-0.00176834571175,-0.00843030773103,1.21846967915e-07,0.0,0.0,0.0,1.21846967915e-07,0.0,0.0,0.0,1.21846967915e-07,0.165454030037,0.0335915088654,9.78608322144,9e-08,0.0,0.0,0.0,9e-08,0.0,0.0,0.0,9e-08
1560461063583293284,4562,1560461063580161984,base_link,-0.00545637620084,0.00807058107175,-0.419172198362,-0.907854538721,1.0,0.0,0.0,0.0,1.0,0.0,0.0,0.0,1.0,-0.00219082809053,0.00205718306825,-0.00989551004022,1.21846967915e-07,0.0,0.0,0.0,1.21846967915e-07,0.0,0.0,0.0,1.21846967915e-07,0.197271496058,0.0132210254669,9.81509971619,9e-08,0.0,0.0,0.0,9e-08,0.0,0.0,0.0,9e-08
1560461063602441094,4563,1560461063600161984,base_link,-0.00544601046333,0.00807389511467,-0.419146004095,-0.90786665594,1.0,0.0,0.0,0.0,1.0,0.0,0.0,0.0,1.0,-0.000358265911927,-0.00198215153068,-0.00851314514875,1.21846967915e-07,0.0,0.0,0.0,1.21846967915e-07,0.0,0.0,0.0,1.21846967915e-07,0.187369704247,0.0143457502127,9.84336662292,9e-08,0.0,0.0,0.0,9e-08,0.0,0.0,0.0,9e-08
1560461063623576843,4564,1560461063620161984,base_link,-0.00546789225097,0.00809365046209,-0.419129082135,-0.907874137005,1.0,0.0,0.0,0.0,1.0,0.0,0.0,0.0,1.0,0.00069532712223,-0.00134586798958,-0.00895199086517,1.21846967915e-07,0.0,0.0,0.0,1.21846967915e-07,0.0,0.0,0.0,1.21846967915e-07,0.195874467492,0.0247526615858,9.84310626984,9e-08,0.0,0.0,0.0,9e-08,0.0,0.0,0.0,9e-08
1560461063639112445,4565,1560461063636161984,base_link,-0.00546043843263,0.00809278949746,-0.419098040982,-0.907888572301,1.0,0.0,0.0,0.0,1.0,0.0,0.0,0.0,1.0,-0.00221049180254,0.00226128683425,-0.0113706365228,1.21846967915e-07,0.0,0.0,0.0,1.21846967915e-07,0.0,0.0,0.0,1.21846967915e-07,0.203484892845,0.024264395237,9.82703971863,9e-08,0.0,0.0,0.0,9e-08,0.0,0.0,0.0,9e-08
1560461063664221636,4566,1560461063660158656,base_link,-0.00546227231445,0.00809739618093,-0.419065714349,-0.907903365845,1.0,0.0,0.0,0.0,1.0,0.0,0.0,0.0,1.0,3.21597763104e-05,-0.00242237700149,-0.0106286145747,1.21846967915e-07,0.0,0.0,0.0,1.21846967915e-07,0.0,0.0,0.0,1.21846967915e-07,0.225519806147,0.00964450836182,9.86519908905,9e-08,0.0,0.0,0.0,9e-08,0.0,0.0,0.0,9e-08
1560461063682153794,4567,1560461063680158656,base_link,-0.00545469345498,0.00808831649853,-0.419036485509,-0.90791700035,1.0,0.0,0.0,0.0,1.0,0.0,0.0,0.0,1.0,-0.000589073752053,0.00312433554791,-0.0096835680306,1.21846967915e-07,0.0,0.0,0.0,1.21846967915e-07,0.0,0.0,0.0,1.21846967915e-07,0.169435873628,0.0452094450593,9.83909606934,9e-08,0.0,0.0,0.0,9e-08,0.0,0.0,0.0,9e-08
1560461063702357500,4568,1560461063700158656,base_link,-0.00543768818943,0.00808679690708,-0.419002093681,-0.907933016153,1.0,0.0,0.0,0.0,1.0,0.0,0.0,0.0,1.0,-0.00239899917506,0.000245039642323,-0.009537152946,1.21846967915e-07,0.0,0.0,0.0,1.21846967915e-07,0.0,0.0,0.0,1.21846967915e-07,0.207945823669,0.0166334137321,9.81364536285,9e-08,0.0,0.0,0.0,9e-08,0.0,0.0,0.0,9e-08
1560461063718899443,4569,1560461063716158656,base_link,-0.00544202816237,0.0080955553844,-0.418982790424,-0.907941866991,1.0,0.0,0.0,0.0,1.0,0.0,0.0,0.0,1.0,-0.000149918167153,-0.000172222906258,-0.00849582720548,1.21846967915e-07,0.0,0.0,0.0,1.21846967915e-07,0.0,0.0,0.0,1.21846967915e-07,0.20810867846,0.0364558324218,9.79425621033,9e-08,0.0,0.0,0.0,9e-08,0.0,0.0,0.0,9e-08
1560461063741036037,4570,1560461063736158656,base_link,-0.00544487233378,0.00810243659828,-0.4189540252,-0.907954953587,1.0,0.0,0.0,0.0,1.0,0.0,0.0,0.0,1.0,-0.000710203952622,0.000775772437919,-0.0104047236964,1.21846967915e-07,0.0,0.0,0.0,1.21846967915e-07,0.0,0.0,0.0,1.21846967915e-07,0.188504248857,0.0651465579867,9.81701850891,9e-08,0.0,0.0,0.0,9e-08,0.0,0.0,0.0,9e-08
1560461063762756135,4571,1560461063760157376,base_link,-0.0054336509,0.00809139132516,-0.418920497382,-0.907970611141,1.0,0.0,0.0,0.0,1.0,0.0,0.0,0.0,1.0,-0.000594311684836,-0.000282735330984,-0.00954366195947,1.21846967915e-07,0.0,0.0,0.0,1.21846967915e-07,0.0,0.0,0.0,1.21846967915e-07,0.167095005512,0.0650038346648,9.81124305725,9e-08,0.0,0.0,0.0,9e-08,0.0,0.0,0.0,9e-08
1560461063781023212,4572,1560461063776157376,base_link,-0.00542658109544,0.00809719013882,-0.418898770682,-0.907980621018,1.0,0.0,0.0,0.0,1.0,0.0,0.0,0.0,1.0,-0.001222535735,-0.00122742773965,-0.00910129211843,1.21846967915e-07,0.0,0.0,0.0,1.21846967915e-07,0.0,0.0,0.0,1.21846967915e-07,0.187394976616,0.0280927047133,9.80355167389,9e-08,0.0,0.0,0.0,9e-08,0.0,0.0,0.0,9e-08
1560461063801925833,4573,1560461063800157376,base_link,-0.00542150750391,0.00809973491944,-0.418868340657,-0.907994782359,1.0,0.0,0.0,0.0,1.0,0.0,0.0,0.0,1.0,-0.00143613270484,-0.000284405541606,-0.00910343043506,1.21846967915e-07,0.0,0.0,0.0,1.21846967915e-07,0.0,0.0,0.0,1.21846967915e-07,0.182096347213,0.0365858003497,9.82762145996,9e-08,0.0,0.0,0.0,9e-08,0.0,0.0,0.0,9e-08
1560461063822668089,4574,1560461063820157376,base_link,-0.00543266374178,0.00810414930791,-0.41884811017,-0.908003970372,1.0,0.0,0.0,0.0,1.0,0.0,0.0,0.0,1.0,0.000578657025471,-0.000925231492147,-0.00986582785845,1.21846967915e-07,0.0,0.0,0.0,1.21846967915e-07,0.0,0.0,0.0,1.21846967915e-07,0.203909486532,0.06607465446,9.81717014313,9e-08,0.0,0.0,0.0,9e-08,0.0,0.0,0.0,9e-08
1560461063839818403,4575,1560461063836157376,base_link,-0.0054300972292,0.00809640959894,-0.418822421666,-0.908015919004,1.0,0.0,0.0,0.0,1.0,0.0,0.0,0.0,1.0,0.000345698092133,0.000662352133077,-0.0110327675939,1.21846967915e-07,0.0,0.0,0.0,1.21846967915e-07,0.0,0.0,0.0,1.21846967915e-07,0.180420547724,0.0512937679887,9.80658626556,9e-08,0.0,0.0,0.0,9e-08,0.0,0.0,0.0,9e-08
1560461063860874940,4576,1560461063856157376,base_link,-0.00542653293937,0.00809331995507,-0.418793572148,-0.908029174187,1.0,0.0,0.0,0.0,1.0,0.0,0.0,0.0,1.0,0.000273500801995,0.000141760800034,-0.00922799576074,1.21846967915e-07,0.0,0.0,0.0,1.21846967915e-07,0.0,0.0,0.0,1.21846967915e-07,0.215360462666,0.0122638046741,9.81153297424,9e-08,0.0,0.0,0.0,9e-08,0.0,0.0,0.0,9e-08
1560461063879961002,4577,1560461063876153792,base_link,-0.00543090847372,0.00810037938756,-0.418765797375,-0.908041860389,1.0,0.0,0.0,0.0,1.0,0.0,0.0,0.0,1.0,-6.46606349619e-05,-0.00028568203561,-0.010057663545,1.21846967915e-07,0.0,0.0,0.0,1.21846967915e-07,0.0,0.0,0.0,1.21846967915e-07,0.173124343157,0.0294511243701,9.82544136047,9e-08,0.0,0.0,0.0,9e-08,0.0,0.0,0.0,9e-08
1560461063903258080,4578,1560461063900153792,base_link,-0.0054254817377,0.00809825130098,-0.418722681149,-0.908061964436,1.0,0.0,0.0,0.0,1.0,0.0,0.0,0.0,1.0,-0.00221012462862,0.000448059756309,-0.011318734847,1.21846967915e-07,0.0,0.0,0.0,1.21846967915e-07,0.0,0.0,0.0,1.21846967915e-07,0.18686658144,0.0231580138206,9.8191652298,9e-08,0.0,0.0,0.0,9e-08,0.0,0.0,0.0,9e-08
1560461063919642221,4579,1560461063916153792,base_link,-0.00543377651737,0.00809629303656,-0.418700722641,-0.908072037532,1.0,0.0,0.0,0.0,1.0,0.0,0.0,0.0,1.0,0.00293179415166,-0.00123668625019,-0.00850151479244,1.21846967915e-07,0.0,0.0,0.0,1.21846967915e-07,0.0,0.0,0.0,1.21846967915e-07,0.202168986201,0.00619477778673,9.85126876831,9e-08,0.0,0.0,0.0,9e-08,0.0,0.0,0.0,9e-08
1560461063939941013,4580,1560461063936153792,base_link,-0.0054470124388,0.00810414502737,-0.418680555374,-0.908081162325,1.0,0.0,0.0,0.0,1.0,0.0,0.0,0.0,1.0,-0.000246742245508,0.00014844594989,-0.00771723594517,1.21846967915e-07,0.0,0.0,0.0,1.21846967915e-07,0.0,0.0,0.0,1.21846967915e-07,0.178432568908,0.0693390965462,9.82213878632,9e-08,0.0,0.0,0.0,9e-08,0.0,0.0,0.0,9e-08
1560461063962792673,4581,1560461063960151488,base_link,-0.00542574811895,0.00810616667669,-0.418653370656,-0.908093848526,1.0,0.0,0.0,0.0,1.0,0.0,0.0,0.0,1.0,-0.000893323333003,0.000357855402399,-0.00834499578923,1.21846967915e-07,0.0,0.0,0.0,1.21846967915e-07,0.0,0.0,0.0,1.21846967915e-07,0.172484725714,0.0188235715032,9.8017578125,9e-08,0.0,0.0,0.0,9e-08,0.0,0.0,0.0,9e-08
1560461063982104612,4582,1560461063976151488,base_link,-0.00541302866105,0.00810825854332,-0.418639082875,-0.908100381288,1.0,0.0,0.0,0.0,1.0,0.0,0.0,0.0,1.0,-0.000362800376024,0.000463443517219,-0.00845525879413,1.21846967915e-07,0.0,0.0,0.0,1.21846967915e-07,0.0,0.0,0.0,1.21846967915e-07,0.207516163588,0.016685821116,9.8536233902,9e-08,0.0,0.0,0.0,9e-08,0.0,0.0,0.0,9e-08
1560461064001987123,4583,1560461064000151488,base_link,-0.00543063657715,0.0081214217779,-0.418606629801,-0.908115132685,1.0,0.0,0.0,0.0,1.0,0.0,0.0,0.0,1.0,0.00197698222473,-0.00112214381807,-0.00858144555241,1.21846967915e-07,0.0,0.0,0.0,1.21846967915e-07,0.0,0.0,0.0,1.21846967915e-07,0.185282826424,0.057615056634,9.81804847717,9e-08,0.0,0.0,0.0,9e-08,0.0,0.0,0.0,9e-08
1560461064019791858,4584,1560461064016151488,base_link,-0.0054295872688,0.00812891165154,-0.41858772694,-0.908123836009,1.0,0.0,0.0,0.0,1.0,0.0,0.0,0.0,1.0,-0.00196144171059,0.000354144256562,-0.00842500943691,1.21846967915e-07,0.0,0.0,0.0,1.21846967915e-07,0.0,0.0,0.0,1.21846967915e-07,0.191427603364,0.0415067225695,9.78926753998,9e-08,0.0,0.0,0.0,9e-08,0.0,0.0,0.0,9e-08
1560461064040678427,4585,1560461064036151488,base_link,-0.0054274823136,0.00812039164965,-0.418559657139,-0.908136817239,1.0,0.0,0.0,0.0,1.0,0.0,0.0,0.0,1.0,-0.000148691528011,0.000463408534415,-0.00834409985691,1.21846967915e-07,0.0,0.0,0.0,1.21846967915e-07,0.0,0.0,0.0,1.21846967915e-07,0.197107613087,0.00205026566982,9.78116035461,9e-08,0.0,0.0,0.0,9e-08,0.0,0.0,0.0,9e-08
1560461064060033581,4586,1560461064056151488,base_link,-0.00544651828346,0.00812095133017,-0.418543198794,-0.908144340451,1.0,0.0,0.0,0.0,1.0,0.0,0.0,0.0,1.0,0.00114405818749,-0.000382497382816,-0.00718265771866,1.21846967915e-07,0.0,0.0,0.0,1.21846967915e-07,0.0,0.0,0.0,1.21846967915e-07,0.196146562696,0.048329539597,9.81489372253,9e-08,0.0,0.0,0.0,9e-08,0.0,0.0,0.0,9e-08
1560461064080667366,4587,1560461064076149440,base_link,-0.00543297696202,0.00812549429946,-0.418523389776,-0.908153528464,1.0,0.0,0.0,0.0,1.0,0.0,0.0,0.0,1.0,-0.0036644609645,0.00280287116766,-0.00861944071949,1.21846967915e-07,0.0,0.0,0.0,1.21846967915e-07,0.0,0.0,0.0,1.21846967915e-07,0.206893742085,0.0127445608377,9.83253765106,9e-08,0.0,0.0,0.0,9e-08,0.0,0.0,0.0,9e-08
1560461064100039334,4588,1560461064096149440,base_link,-0.00541942386909,0.00811696112668,-0.418495088167,-0.908166741501,1.0,0.0,0.0,0.0,1.0,0.0,0.0,0.0,1.0,0.00090710632503,0.00131125666667,-0.00898817181587,1.21846967915e-07,0.0,0.0,0.0,1.21846967915e-07,0.0,0.0,0.0,1.21846967915e-07,0.184940457344,-0.0253347605467,9.82795238495,9e-08,0.0,0.0,0.0,9e-08,0.0,0.0,0.0,9e-08
1560461064120865313,4589,1560461064116149440,base_link,-0.00544040781361,0.00812690506643,-0.418469947572,-0.90817805793,1.0,0.0,0.0,0.0,1.0,0.0,0.0,0.0,1.0,0.0010123209795,-0.00273474026471,-0.00907912943512,1.21846967915e-07,0.0,0.0,0.0,1.21846967915e-07,0.0,0.0,0.0,1.21846967915e-07,0.205143362284,0.0460244268179,9.83815670013,9e-08,0.0,0.0,0.0,9e-08,0.0,0.0,0.0,9e-08
1560461064140505550,4590,1560461064136149440,base_link,-0.00544129775419,0.00813445371517,-0.418441667036,-0.908190912719,1.0,0.0,0.0,0.0,1.0,0.0,0.0,0.0,1.0,-0.000710233231075,0.000558962929063,-0.0112054683268,1.21846967915e-07,0.0,0.0,0.0,1.21846967915e-07,0.0,0.0,0.0,1.21846967915e-07,0.192898780107,0.0334172993898,9.84960174561,9e-08,0.0,0.0,0.0,9e-08,0.0,0.0,0.0,9e-08
1560461064159753606,4591,1560461064156149440,base_link,-0.00543567814695,0.00813399232242,-0.4184130704,-0.908204167902,1.0,0.0,0.0,0.0,1.0,0.0,0.0,0.0,1.0,-0.0010125071276,0.000883489032276,-0.00927270948887,1.21846967915e-07,0.0,0.0,0.0,1.21846967915e-07,0.0,0.0,0.0,1.21846967915e-07,0.20575299859,0.0230530425906,9.80887794495,9e-08,0.0,0.0,0.0,9e-08,0.0,0.0,0.0,9e-08
1560461064180586617,4592,1560461064176147392,base_link,-0.00543861237432,0.00813385032376,-0.418388203759,-0.908215631845,1.0,0.0,0.0,0.0,1.0,0.0,0.0,0.0,1.0,0.000268843519734,-0.000924266059883,-0.00895754527301,1.21846967915e-07,0.0,0.0,0.0,1.21846967915e-07,0.0,0.0,0.0,1.21846967915e-07,0.17979735136,0.0179045125842,9.82677268982,9e-08,0.0,0.0,0.0,9e-08,0.0,0.0,0.0,9e-08
1560461064200266265,4593,1560461064196147392,base_link,-0.00544227248238,0.00814183328261,-0.418363568926,-0.908226948274,1.0,0.0,0.0,0.0,1.0,0.0,0.0,0.0,1.0,-0.000361843092833,-0.00112848542631,-0.00871791318059,1.21846967915e-07,0.0,0.0,0.0,1.21846967915e-07,0.0,0.0,0.0,1.21846967915e-07,0.221021205187,0.0375195741653,9.85727119446,9e-08,0.0,0.0,0.0,9e-08,0.0,0.0,0.0,9e-08
1560461064219595489,4594,1560461064216147392,base_link,-0.00543696658928,0.00815060180273,-0.418343865274,-0.908235862333,1.0,0.0,0.0,0.0,1.0,0.0,0.0,0.0,1.0,-0.00268924469128,0.000671891262755,-0.00795218069106,1.21846967915e-07,0.0,0.0,0.0,1.21846967915e-07,0.0,0.0,0.0,1.21846967915e-07,0.218078032136,0.0247705504298,9.81163597107,9e-08,0.0,0.0,0.0,9e-08,0.0,0.0,0.0,9e-08
1560461064239779385,4595,1560461064236147392,base_link,-0.00543167065667,0.00815185427207,-0.418323129025,-0.908245556108,1.0,0.0,0.0,0.0,1.0,0.0,0.0,0.0,1.0,0.000913946016226,0.000141724362038,-0.00863480288535,1.21846967915e-07,0.0,0.0,0.0,1.21846967915e-07,0.0,0.0,0.0,1.21846967915e-07,0.162466078997,0.0116610527039,9.79912376404,9e-08,0.0,0.0,0.0,9e-08,0.0,0.0,0.0,9e-08
1560461064259210189,4596,1560461064256147392,base_link,-0.00544561434881,0.00816373474426,-0.418304036502,-0.908254027624,1.0,0.0,0.0,0.0,1.0,0.0,0.0,0.0,1.0,-0.000687870080583,-0.00103101856075,-0.00828889012337,1.21846967915e-07,0.0,0.0,0.0,1.21846967915e-07,0.0,0.0,0.0,1.21846967915e-07,0.19577768445,0.0636113584042,9.81507301331,9e-08,0.0,0.0,0.0,9e-08,0.0,0.0,0.0,9e-08
1560461064279962288,4597,1560461064276147136,base_link,-0.00543587093586,0.00815945774464,-0.418272995349,-0.90826846292,1.0,0.0,0.0,0.0,1.0,0.0,0.0,0.0,1.0,-0.00284575694241,0.00236380845308,-0.011143065989,1.21846967915e-07,0.0,0.0,0.0,1.21846967915e-07,0.0,0.0,0.0,1.21846967915e-07,0.195850938559,0.0372375175357,9.78605556488,9e-08,0.0,0.0,0.0,9e-08,0.0,0.0,0.0,9e-08
1560461064300306645,4598,1560461064296147136,base_link,-0.00541945589081,0.00814976808538,-0.418249582774,-0.908279484321,1.0,0.0,0.0,0.0,1.0,0.0,0.0,0.0,1.0,0.000921743281651,-0.000919509446248,-0.00787832960486,1.21846967915e-07,0.0,0.0,0.0,1.21846967915e-07,0.0,0.0,0.0,1.21846967915e-07,0.185239076614,0.0181565955281,9.84372329712,9e-08,0.0,0.0,0.0,9e-08,0.0,0.0,0.0,9e-08
1560461064320310862,4599,1560461064316147136,base_link,-0.00544502635088,0.00816103133674,-0.418232260419,-0.908287197194,1.0,0.0,0.0,0.0,1.0,0.0,0.0,0.0,1.0,0.00124989531469,-0.00229882774875,-0.00733986310661,1.21846967915e-07,0.0,0.0,0.0,1.21846967915e-07,0.0,0.0,0.0,1.21846967915e-07,0.212038934231,0.0662807449698,9.81568622589,9e-08,0.0,0.0,0.0,9e-08,0.0,0.0,0.0,9e-08
1560461064339242759,4600,1560461064336147136,base_link,-0.00543365320491,0.00816473375628,-0.418207604513,-0.908298534696,1.0,0.0,0.0,0.0,1.0,0.0,0.0,0.0,1.0,-0.00315875397064,0.00267791841179,-0.010813803412,1.21846967915e-07,0.0,0.0,0.0,1.21846967915e-07,0.0,0.0,0.0,1.21846967915e-07,0.214873492718,0.0291108861566,9.77066898346,9e-08,0.0,0.0,0.0,9e-08,0.0,0.0,0.0,9e-08
1560461064359902143,4601,1560461064356147136,base_link,-0.00540704224452,0.00816087517937,-0.418183854764,-0.908309724685,1.0,0.0,0.0,0.0,1.0,0.0,0.0,0.0,1.0,-0.000570813950617,0.000249698583502,-0.00806510820985,1.21846967915e-07,0.0,0.0,0.0,1.21846967915e-07,0.0,0.0,0.0,1.21846967915e-07,0.168625354767,0.0123977437615,9.77324199677,9e-08,0.0,0.0,0.0,9e-08,0.0,0.0,0.0,9e-08
1560461064380130573,4602,1560461064376144320,base_link,-0.00542894345922,0.00816559891913,-0.418169208734,-0.908316278519,1.0,0.0,0.0,0.0,1.0,0.0,0.0,0.0,1.0,0.00336886243895,-0.00124108185992,-0.00822078250349,1.21846967915e-07,0.0,0.0,0.0,1.21846967915e-07,0.0,0.0,0.0,1.21846967915e-07,0.17570027709,0.0507328435779,9.80825901031,9e-08,0.0,0.0,0.0,9e-08,0.0,0.0,0.0,9e-08
1560461064402823862,4603,1560461064400144320,base_link,-0.00541758455428,0.0081667503842,-0.418141096786,-0.908329217602,1.0,0.0,0.0,0.0,1.0,0.0,0.0,0.0,1.0,-0.00399101153016,0.00226446590386,-0.00940519105643,1.21846967915e-07,0.0,0.0,0.0,1.21846967915e-07,0.0,0.0,0.0,1.21846967915e-07,0.202022686601,0.0603645145893,9.77486991882,9e-08,0.0,0.0,0.0,9e-08,0.0,0.0,0.0,9e-08
1560461064419057841,4604,1560461064416144320,base_link,-0.00539785250287,0.00815562040579,-0.418121603869,-0.908338426688,1.0,0.0,0.0,0.0,1.0,0.0,0.0,0.0,1.0,-0.00133570050821,0.000244531198405,-0.00921254605055,1.21846967915e-07,0.0,0.0,0.0,1.21846967915e-07,0.0,0.0,0.0,1.21846967915e-07,0.164207577705,-0.00880240276456,9.79927444458,9e-08,0.0,0.0,0.0,9e-08,0.0,0.0,0.0,9e-08
1560461064441152033,4605,1560461064436144320,base_link,-0.00542810496743,0.00817041106849,-0.418103522871,-0.908346392443,1.0,0.0,0.0,0.0,1.0,0.0,0.0,0.0,1.0,0.00143636856228,-0.00284082279541,-0.00880517996848,1.21846967915e-07,0.0,0.0,0.0,1.21846967915e-07,0.0,0.0,0.0,1.21846967915e-07,0.172140866518,0.0586466342211,9.81618309021,9e-08,0.0,0.0,0.0,9e-08,0.0,0.0,0.0,9e-08
1560461064459021858,4606,1560461064456144320,base_link,-0.00542590938004,0.00816761093724,-0.418080004929,-0.90835726633,1.0,0.0,0.0,0.0,1.0,0.0,0.0,0.0,1.0,-0.00177144131158,0.00151551282033,-0.0101699884981,1.21846967915e-07,0.0,0.0,0.0,1.21846967915e-07,0.0,0.0,0.0,1.21846967915e-07,0.218136489391,0.0533010214567,9.79430103302,9e-08,0.0,0.0,0.0,9e-08,0.0,0.0,0.0,9e-08
1560461064480528909,4607,1560461064477142272,base_link,-0.0053911030802,0.00814478142173,-0.418048036545,-0.908372375975,1.0,0.0,0.0,0.0,1.0,0.0,0.0,0.0,1.0,-0.00086247024592,0.00182451121509,-0.00960983708501,1.21846967915e-07,0.0,0.0,0.0,1.21846967915e-07,0.0,0.0,0.0,1.21846967915e-07,0.172518581152,-0.013361081481,9.79662227631,9e-08,0.0,0.0,0.0,9e-08,0.0,0.0,0.0,9e-08
1560461064501916961,4608,1560461064498142272,base_link,-0.00540353426024,0.00815277302397,-0.418024645044,-0.908383123421,1.0,0.0,0.0,0.0,1.0,0.0,0.0,0.0,1.0,0.000592901546042,-0.0013504778035,-0.00858276709914,1.21846967915e-07,0.0,0.0,0.0,1.21846967915e-07,0.0,0.0,0.0,1.21846967915e-07,0.198588252068,0.0547579675913,9.78635597229,9e-08,0.0,0.0,0.0,9e-08,0.0,0.0,0.0,9e-08
1560461064520558657,4609,1560461064518142272,base_link,-0.00540097359224,0.00814520132618,-0.417996659536,-0.908396020357,1.0,0.0,0.0,0.0,1.0,0.0,0.0,0.0,1.0,-0.000824035145342,0.00162974791601,-0.0104925045744,1.21846967915e-07,0.0,0.0,0.0,1.21846967915e-07,0.0,0.0,0.0,1.21846967915e-07,0.2142945081,0.062994427979,9.8246011734,9e-08,0.0,0.0,0.0,9e-08,0.0,0.0,0.0,9e-08
1560461064540501012,4610,1560461064538142272,base_link,-0.00539380731091,0.00813817070501,-0.41797046527,-0.908408221869,1.0,0.0,0.0,0.0,1.0,0.0,0.0,0.0,1.0,-0.0016460949555,0.000349367503077,-0.00919381622225,1.21846967915e-07,0.0,0.0,0.0,1.21846967915e-07,0.0,0.0,0.0,1.21846967915e-07,0.186169058084,0.00827910006046,9.82053947449,9e-08,0.0,0.0,0.0,9e-08,0.0,0.0,0.0,9e-08
1560461064560780053,4611,1560461064558142272,base_link,-0.00540908768376,0.00814323540618,-0.417950782692,-0.908417114855,1.0,0.0,0.0,0.0,1.0,0.0,0.0,0.0,1.0,0.000271966622677,-0.0012389915064,-0.00857135467231,1.21846967915e-07,0.0,0.0,0.0,1.21846967915e-07,0.0,0.0,0.0,1.21846967915e-07,0.189323350787,0.0383999124169,9.80059528351,9e-08,0.0,0.0,0.0,9e-08,0.0,0.0,0.0,9e-08
1560461064580788129,4612,1560461064578139968,base_link,-0.00541225273099,0.00814592745381,-0.417921574926,-0.908430559699,1.0,0.0,0.0,0.0,1.0,0.0,0.0,0.0,1.0,-0.000696820905432,0.000566284754314,-0.00951930414885,1.21846967915e-07,0.0,0.0,0.0,1.21846967915e-07,0.0,0.0,0.0,1.21846967915e-07,0.176590174437,0.0395988449454,9.81687164307,9e-08,0.0,0.0,0.0,9e-08,0.0,0.0,0.0,9e-08
1560461064600794752,4613,1560461064598139968,base_link,-0.00540852783861,0.00814985912916,-0.417898099131,-0.908441307146,1.0,0.0,0.0,0.0,1.0,0.0,0.0,0.0,1.0,-0.0004856363812,-0.000397207739297,-0.00983487162739,1.21846967915e-07,0.0,0.0,0.0,1.21846967915e-07,0.0,0.0,0.0,1.21846967915e-07,0.221752151847,-0.00800381600857,9.80572032928,9e-08,0.0,0.0,0.0,9e-08,0.0,0.0,0.0,9e-08
1560461064620759664,4614,1560461064618139968,base_link,-0.00541544930603,0.00816012962467,-0.417877088927,-0.908450769113,1.0,0.0,0.0,0.0,1.0,0.0,0.0,0.0,1.0,-0.000591357587837,-0.000929433153942,-0.0092919357121,1.21846967915e-07,0.0,0.0,0.0,1.21846967915e-07,0.0,0.0,0.0,1.21846967915e-07,0.183894142509,0.0344851389527,9.81938552856,9e-08,0.0,0.0,0.0,9e-08,0.0,0.0,0.0,9e-08
1560461064641166208,4615,1560461064638139968,base_link,-0.00542386237675,0.00815999972677,-0.417838946029,-0.908468344349,1.0,0.0,0.0,0.0,1.0,0.0,0.0,0.0,1.0,0.00121194578242,-0.000190317630768,-0.0104907304049,1.21846967915e-07,0.0,0.0,0.0,1.21846967915e-07,0.0,0.0,0.0,1.21846967915e-07,0.222174972296,0.0506383255124,9.81937217712,9e-08,0.0,0.0,0.0,9e-08,0.0,0.0,0.0,9e-08
1560461064660597629,4616,1560461064658139968,base_link,-0.00542238740169,0.00816224388182,-0.417814838032,-0.908479471117,1.0,0.0,0.0,0.0,1.0,0.0,0.0,0.0,1.0,0.000566004717257,0.000657221535221,-0.0101415636018,1.21846967915e-07,0.0,0.0,0.0,1.21846967915e-07,0.0,0.0,0.0,1.21846967915e-07,0.202156424522,0.0206567719579,9.82436847687,9e-08,0.0,0.0,0.0,9e-08,0.0,0.0,0.0,9e-08
1560461064681055940,4617,1560461064678137920,base_link,-0.00541306726822,0.00816011719465,-0.417787021112,-0.908492368053,1.0,0.0,0.0,0.0,1.0,0.0,0.0,0.0,1.0,-5.77866885578e-05,0.00162826292217,-0.00949850771576,1.21846967915e-07,0.0,0.0,0.0,1.21846967915e-07,0.0,0.0,0.0,1.21846967915e-07,0.187435120344,0.0447262451053,9.86779975891,9e-08,0.0,0.0,0.0,9e-08,0.0,0.0,0.0,9e-08
1560461064701177618,4618,1560461064698137920,base_link,-0.00541583661252,0.00816432578796,-0.417758972384,-0.908505159621,1.0,0.0,0.0,0.0,1.0,0.0,0.0,0.0,1.0,0.000354038522346,-0.00125391699839,-0.0105511154979,1.21846967915e-07,0.0,0.0,0.0,1.21846967915e-07,0.0,0.0,0.0,1.21846967915e-07,0.165917932987,0.0378631949425,9.82697296143,9e-08,0.0,0.0,0.0,9e-08,0.0,0.0,0.0,9e-08
1560461064721531983,4619,1560461064718137920,base_link,-0.00541426244419,0.0081711748978,-0.417741797543,-0.908512977861,1.0,0.0,0.0,0.0,1.0,0.0,0.0,0.0,1.0,-0.000897574878763,0.000891019240953,-0.00862455833703,1.21846967915e-07,0.0,0.0,0.0,1.21846967915e-07,0.0,0.0,0.0,1.21846967915e-07,0.184135317802,0.0125372260809,9.83139419556,9e-08,0.0,0.0,0.0,9e-08,0.0,0.0,0.0,9e-08
1560461064740694437,4620,1560461064738137920,base_link,-0.00540984286968,0.0081722622371,-0.417733262807,-0.908516876445,1.0,0.0,0.0,0.0,1.0,0.0,0.0,0.0,1.0,-0.0015200052876,0.00217012455687,-0.00723500642926,1.21846967915e-07,0.0,0.0,0.0,1.21846967915e-07,0.0,0.0,0.0,1.21846967915e-07,0.175720632076,0.0522248372436,9.84643173218,9e-08,0.0,0.0,0.0,9e-08,0.0,0.0,0.0,9e-08
1560461064761641170,4621,1560461064758137920,base_link,-0.00541053071942,0.00817434554265,-0.417709681645,-0.908527729258,1.0,0.0,0.0,0.0,1.0,0.0,0.0,0.0,1.0,0.00015562295448,0.00035094487248,-0.0093780644238,1.21846967915e-07,0.0,0.0,0.0,1.21846967915e-07,0.0,0.0,0.0,1.21846967915e-07,0.204143673182,0.041381046176,9.86398696899,9e-08,0.0,0.0,0.0,9e-08,0.0,0.0,0.0,9e-08
1560461064780956892,4622,1560461064778135360,base_link,-0.0054054991101,0.0081793007608,-0.417685700088,-0.908538729586,1.0,0.0,0.0,0.0,1.0,0.0,0.0,0.0,1.0,-0.00102190079633,0.000451446278021,-0.0099973063916,1.21846967915e-07,0.0,0.0,0.0,1.21846967915e-07,0.0,0.0,0.0,1.21846967915e-07,0.188085049391,0.03263566643,9.83693313599,9e-08,0.0,0.0,0.0,9e-08,0.0,0.0,0.0,9e-08
1560461064801064137,4623,1560461064798135360,base_link,-0.00539476483462,0.00817182891481,-0.417664689884,-0.908548444434,1.0,0.0,0.0,0.0,1.0,0.0,0.0,0.0,1.0,-0.0026032384485,0.000566385861021,-0.00880375597626,1.21846967915e-07,0.0,0.0,0.0,1.21846967915e-07,0.0,0.0,0.0,1.21846967915e-07,0.186931967735,0.00157088786364,9.81974601746,9e-08,0.0,0.0,0.0,9e-08,0.0,0.0,0.0,9e-08
1560461064820723103,4624,1560461064818135360,base_link,-0.00540026812644,0.00817616296085,-0.417645133746,-0.90855746386,1.0,0.0,0.0,0.0,1.0,0.0,0.0,0.0,1.0,0.00144897948485,-0.00166997686028,-0.0084170633927,1.21846967915e-07,0.0,0.0,0.0,1.21846967915e-07,0.0,0.0,0.0,1.21846967915e-07,0.192651003599,0.0282432585955,9.81698703766,9e-08,0.0,0.0,0.0,9e-08,0.0,0.0,0.0,9e-08
1560461064840735113,4625,1560461064835135360,base_link,-0.00541429018538,0.00817528808448,-0.417627537437,-0.908565450688,1.0,0.0,0.0,0.0,1.0,0.0,0.0,0.0,1.0,0.00101164658554,0.000314689299557,-0.00893680751324,1.21846967915e-07,0.0,0.0,0.0,1.21846967915e-07,0.0,0.0,0.0,1.21846967915e-07,0.197325780988,0.0433340072632,9.80813312531,9e-08,0.0,0.0,0.0,9e-08,0.0,0.0,0.0,9e-08
1560461064862456403,4626,1560461064860132800,base_link,-0.00539569107747,0.0081747235472,-0.417602776164,-0.908576977851,1.0,0.0,0.0,0.0,1.0,0.0,0.0,0.0,1.0,-0.00282414886169,0.000665319617838,-0.0094315558672,1.21846967915e-07,0.0,0.0,0.0,1.21846967915e-07,0.0,0.0,0.0,1.21846967915e-07,0.186088323593,0.0165296643972,9.85545253754,9e-08,0.0,0.0,0.0,9e-08,0.0,0.0,0.0,9e-08
1560461064882295395,4627,1560461064880132800,base_link,-0.0053972388217,0.00817140695242,-0.417582145281,-0.908586481965,1.0,0.0,0.0,0.0,1.0,0.0,0.0,0.0,1.0,0.000811150472146,-0.00156354322098,-0.00797460414469,1.21846967915e-07,0.0,0.0,0.0,1.21846967915e-07,0.0,0.0,0.0,1.21846967915e-07,0.221540600061,0.052854552865,9.7973575592,9e-08,0.0,0.0,0.0,9e-08,0.0,0.0,0.0,9e-08
1560461064899763948,4628,1560461064896132800,base_link,-0.00540455772073,0.0081810179156,-0.417566066258,-0.90859371015,1.0,0.0,0.0,0.0,1.0,0.0,0.0,0.0,1.0,-0.00123193429317,-0.00114559358917,-0.00975458137691,1.21846967915e-07,0.0,0.0,0.0,1.21846967915e-07,0.0,0.0,0.0,1.21846967915e-07,0.215701326728,0.0677041113377,9.82109546661,9e-08,0.0,0.0,0.0,9e-08,0.0,0.0,0.0,9e-08
1560461064918785883,4629,1560461064916132800,base_link,-0.00538870013361,0.00817906187378,-0.41754084137,-0.908605363753,1.0,0.0,0.0,0.0,1.0,0.0,0.0,0.0,1.0,-0.00186962541193,0.00183553202078,-0.00943706464022,1.21846967915e-07,0.0,0.0,0.0,1.21846967915e-07,0.0,0.0,0.0,1.21846967915e-07,0.16564822197,0.027752622962,9.81672382355,9e-08,0.0,0.0,0.0,9e-08,0.0,0.0,0.0,9e-08
1560461064939510768,4630,1560461064936132800,base_link,-0.00539991547585,0.00817730454776,-0.417520695176,-0.90861463606,1.0,0.0,0.0,0.0,1.0,0.0,0.0,0.0,1.0,0.00176080246456,-0.00253429240547,-0.00903432257473,1.21846967915e-07,0.0,0.0,0.0,1.21846967915e-07,0.0,0.0,0.0,1.21846967915e-07,0.178780287504,-0.0106180123985,9.82116985321,9e-08,0.0,0.0,0.0,9e-08,0.0,0.0,0.0,9e-08
1560461064964268819,4631,1560461064960129472,base_link,-0.00541739621055,0.00819394300403,-0.417498315199,-0.908624624863,1.0,0.0,0.0,0.0,1.0,0.0,0.0,0.0,1.0,-0.0014102011919,-0.000914554053452,-0.00741508416831,1.21846967915e-07,0.0,0.0,0.0,1.21846967915e-07,0.0,0.0,0.0,1.21846967915e-07,0.217166900635,0.0550119951367,9.81238079071,9e-08,0.0,0.0,0.0,9e-08,0.0,0.0,0.0,9e-08
1560461064979968079,4632,1560461064976129472,base_link,-0.00539021149326,0.00819108623795,-0.417475071213,-0.90863556197,1.0,0.0,0.0,0.0,1.0,0.0,0.0,0.0,1.0,-0.00430609798059,0.00332949752919,-0.00844996608794,1.21846967915e-07,0.0,0.0,0.0,1.21846967915e-07,0.0,0.0,0.0,1.21846967915e-07,0.220758363605,0.0305561050773,9.83753967285,9e-08,0.0,0.0,0.0,9e-08,0.0,0.0,0.0,9e-08
1560461065002823999,4633,1560461065000129472,base_link,-0.00539180780514,0.00818719292282,-0.417443271415,-0.90865008156,1.0,0.0,0.0,0.0,1.0,0.0,0.0,0.0,1.0,0.00218247482553,-0.00294992187992,-0.00945963058621,1.21846967915e-07,0.0,0.0,0.0,1.21846967915e-07,0.0,0.0,0.0,1.21846967915e-07,0.18821400404,0.0280982926488,9.83447933197,9e-08,0.0,0.0,0.0,9e-08,0.0,0.0,0.0,9e-08
1560461065018995960,4634,1560461065016129472,base_link,-0.00540910069002,0.00819708607233,-0.417424094599,-0.908658805957,1.0,0.0,0.0,0.0,1.0,0.0,0.0,0.0,1.0,0.00174693798181,-0.00189044361468,-0.00986318103969,1.21846967915e-07,0.0,0.0,0.0,1.21846967915e-07,0.0,0.0,0.0,1.21846967915e-07,0.193930417299,0.0503766834736,9.85962963104,9e-08,0.0,0.0,0.0,9e-08,0.0,0.0,0.0,9e-08
1560461065042731139,4635,1560461065036129472,base_link,-0.00540224178433,0.00819039871748,-0.417410755122,-0.908665064764,1.0,0.0,0.0,0.0,1.0,0.0,0.0,0.0,1.0,-0.000783013238106,0.00141710997559,-0.00803251564503,1.21846967915e-07,0.0,0.0,0.0,1.21846967915e-07,0.0,0.0,0.0,1.21846967915e-07,0.209292203188,0.0388236120343,9.83127212524,9e-08,0.0,0.0,0.0,9e-08,0.0,0.0,0.0,9e-08
1560461065062324538,4636,1560461065060127424,base_link,-0.00539842123837,0.00817578528558,-0.417382853908,-0.9086779617,1.0,0.0,0.0,0.0,1.0,0.0,0.0,0.0,1.0,0.00270879920572,-0.000286191643681,-0.00934722088277,1.21846967915e-07,0.0,0.0,0.0,1.21846967915e-07,0.0,0.0,0.0,1.21846967915e-07,0.210250973701,-0.0184036083519,9.83198356628,9e-08,0.0,0.0,0.0,9e-08,0.0,0.0,0.0,9e-08
1560461065081982506,4637,1560461065080127424,base_link,-0.00541151013973,0.0081859364199,-0.417370357367,-0.908683461864,1.0,0.0,0.0,0.0,1.0,0.0,0.0,0.0,1.0,-0.00131228612736,-0.00294794957153,-0.007996564731,1.21846967915e-07,0.0,0.0,0.0,1.21846967915e-07,0.0,0.0,0.0,1.21846967915e-07,0.1874345541,0.0387322977185,9.82515525818,9e-08,0.0,0.0,0.0,9e-08,0.0,0.0,0.0,9e-08
1560461065102118151,4638,1560461065100127424,base_link,-0.00538206546233,0.0081709543677,-0.417348630667,-0.908693808915,1.0,0.0,0.0,0.0,1.0,0.0,0.0,0.0,1.0,-0.00231810938567,0.00395421124995,-0.0114185977727,1.21846967915e-07,0.0,0.0,0.0,1.21846967915e-07,0.0,0.0,0.0,1.21846967915e-07,0.187708169222,0.0386807620525,9.80990314484,9e-08,0.0,0.0,0.0,9e-08,0.0,0.0,0.0,9e-08
1560461065122651439,4639,1560461065120127424,base_link,-0.00538291465547,0.00816734982434,-0.41732778905,-0.908703355176,1.0,0.0,0.0,0.0,1.0,0.0,0.0,0.0,1.0,0.00101226137485,-0.0012487481581,-0.00909339264035,1.21846967915e-07,0.0,0.0,0.0,1.21846967915e-07,0.0,0.0,0.0,1.21846967915e-07,0.188050627708,0.012921474874,9.7963552475,9e-08,0.0,0.0,0.0,9e-08,0.0,0.0,0.0,9e-08
1560461065142713124,4640,1560461065140127424,base_link,-0.00541276581948,0.00817523984609,-0.417314407426,-0.908709318955,1.0,0.0,0.0,0.0,1.0,0.0,0.0,0.0,1.0,0.000705844839104,-0.0011406140402,-0.00854777358472,1.21846967915e-07,0.0,0.0,0.0,1.21846967915e-07,0.0,0.0,0.0,1.21846967915e-07,0.220970183611,0.0539727210999,9.82934379578,9e-08,0.0,0.0,0.0,9e-08,0.0,0.0,0.0,9e-08
1560461065164462966,4641,1560461065160124352,base_link,-0.00539145268502,0.00816054903521,-0.417290151915,-0.908720761825,1.0,0.0,0.0,0.0,1.0,0.0,0.0,0.0,1.0,-0.0026084901765,0.00300612277351,-0.00938069913536,1.21846967915e-07,0.0,0.0,0.0,1.21846967915e-07,0.0,0.0,0.0,1.21846967915e-07,0.176995635033,0.0167107656598,9.81221675873,9e-08,0.0,0.0,0.0,9e-08,0.0,0.0,0.0,9e-08
1560461065179756459,4642,1560461065176124352,base_link,-0.00538268367099,0.00815763415258,-0.417275864133,-0.90872737888,1.0,0.0,0.0,0.0,1.0,0.0,0.0,0.0,1.0,0.000703482190147,-0.00103608635254,-0.00864750612527,1.21846967915e-07,0.0,0.0,0.0,1.21846967915e-07,0.0,0.0,0.0,1.21846967915e-07,0.182019248605,0.0111108422279,9.79988956451,9e-08,0.0,0.0,0.0,9e-08,0.0,0.0,0.0,9e-08
1560461065199392191,4643,1560461065196124352,base_link,-0.00539999976955,0.008172203462,-0.41725738274,-0.908735660736,1.0,0.0,0.0,0.0,1.0,0.0,0.0,0.0,1.0,0.000367872475181,-0.0021036521066,-0.0094943754375,1.21846967915e-07,0.0,0.0,0.0,1.21846967915e-07,0.0,0.0,0.0,1.21846967915e-07,0.230597510934,0.0202031284571,9.83362865448,9e-08,0.0,0.0,0.0,9e-08,0.0,0.0,0.0,9e-08
1560461065221270889,4644,1560461065216124352,base_link,-0.00540205673332,0.00816289065484,-0.417236604344,-0.90874522807,1.0,0.0,0.0,0.0,1.0,0.0,0.0,0.0,1.0,0.00144022912718,0.00247403047979,-0.00900011975318,1.21846967915e-07,0.0,0.0,0.0,1.21846967915e-07,0.0,0.0,0.0,1.21846967915e-07,0.200836449862,0.0239015519619,9.81278991699,9e-08,0.0,0.0,0.0,9e-08,0.0,0.0,0.0,9e-08
1560461065240205493,4645,1560461065236124352,base_link,-0.00539316704101,0.00816434801384,-0.417218101877,-0.90875378388,1.0,0.0,0.0,0.0,1.0,0.0,0.0,0.0,1.0,0.000268803560175,0.000878288468812,-0.00897284597158,1.21846967915e-07,0.0,0.0,0.0,1.21846967915e-07,0.0,0.0,0.0,1.21846967915e-07,0.169218420982,-0.00346204265952,9.76270675659,9e-08,0.0,0.0,0.0,9e-08,0.0,0.0,0.0,9e-08
1560461065260391885,4646,1560461065256124352,base_link,-0.00540968992271,0.00818079845565,-0.417201306358,-0.908761222799,1.0,0.0,0.0,0.0,1.0,0.0,0.0,0.0,1.0,0.000463050877443,-0.00232210033573,-0.0105521641672,1.21846967915e-07,0.0,0.0,0.0,1.21846967915e-07,0.0,0.0,0.0,1.21846967915e-07,0.190002679825,0.0500197410584,9.81874465942,9e-08,0.0,0.0,0.0,9e-08,0.0,0.0,0.0,9e-08
1560461065280145173,4647,1560461065276121280,base_link,-0.00538758455922,0.00817548070874,-0.417176671525,-0.908772707815,1.0,0.0,0.0,0.0,1.0,0.0,0.0,0.0,1.0,-0.00303803547285,0.00428094295785,-0.00946776848286,1.21846967915e-07,0.0,0.0,0.0,1.21846967915e-07,0.0,0.0,0.0,1.21846967915e-07,0.217456489801,-0.0035742893815,9.837059021,9e-08,0.0,0.0,0.0,9e-08,0.0,0.0,0.0,9e-08
1560461065300996631,4648,1560461065296121280,base_link,-0.00537048413398,0.00816525548817,-0.417153153584,-0.908783665996,1.0,0.0,0.0,0.0,1.0,0.0,0.0,0.0,1.0,-0.000160645111464,-8.25439929031e-05,-0.00926923751831,1.21846967915e-07,0.0,0.0,0.0,1.21846967915e-07,0.0,0.0,0.0,1.21846967915e-07,0.191312998533,0.0200108289719,9.80389213562,9e-08,0.0,0.0,0.0,9e-08,0.0,0.0,0.0,9e-08
1560461065319148748,4649,1560461065316121280,base_link,-0.00539164349829,0.00818058344086,-0.417136210551,-0.908791168135,1.0,0.0,0.0,0.0,1.0,0.0,0.0,0.0,1.0,-0.000663103885017,-0.00262817111798,-0.00668247044086,1.21846967915e-07,0.0,0.0,0.0,1.21846967915e-07,0.0,0.0,0.0,1.21846967915e-07,0.180231526494,0.0667156800628,9.82261276245,9e-08,0.0,0.0,0.0,9e-08,0.0,0.0,0.0,9e-08
1560461065340818519,4650,1560461065336121280,base_link,-0.00538064432328,0.00818211142876,-0.417109405155,-0.908803559309,1.0,0.0,0.0,0.0,1.0,0.0,0.0,0.0,1.0,-0.00282728648745,0.00151205237489,-0.00998507253826,1.21846967915e-07,0.0,0.0,0.0,1.21846967915e-07,0.0,0.0,0.0,1.21846967915e-07,0.207250878215,0.0585551708937,9.85028648376,9e-08,0.0,0.0,0.0,9e-08,0.0,0.0,0.0,9e-08
1560461065359462692,4651,1560461065356121280,base_link,-0.00536283843224,0.00817533912167,-0.417084053825,-0.908815423646,1.0,0.0,0.0,0.0,1.0,0.0,0.0,0.0,1.0,-0.000570786185563,-0.00029498594813,-0.00849926564842,1.21846967915e-07,0.0,0.0,0.0,1.21846967915e-07,0.0,0.0,0.0,1.21846967915e-07,0.174962073565,0.0126442685723,9.85311985016,9e-08,0.0,0.0,0.0,9e-08,0.0,0.0,0.0,9e-08
1560461065380323121,4652,1560461065376119232,base_link,-0.00538318120136,0.00819247280341,-0.417063739044,-0.908824358778,1.0,0.0,0.0,0.0,1.0,0.0,0.0,0.0,1.0,0.000572102260776,-0.000934258394409,-0.0095674470067,1.21846967915e-07,0.0,0.0,0.0,1.21846967915e-07,0.0,0.0,0.0,1.21846967915e-07,0.203605920076,0.0565226525068,9.79975700378,9e-08,0.0,0.0,0.0,9e-08,0.0,0.0,0.0,9e-08
1560461065400470293,4653,1560461065396119232,base_link,-0.00536814893515,0.00817898877534,-0.417040010369,-0.908835527693,1.0,0.0,0.0,0.0,1.0,0.0,0.0,0.0,1.0,-0.00145065411925,0.00172476633452,-0.0103096123785,1.21846967915e-07,0.0,0.0,0.0,1.21846967915e-07,0.0,0.0,0.0,1.21846967915e-07,0.187298968434,-0.00641118735075,9.83496952057,9e-08,0.0,0.0,0.0,9e-08,0.0,0.0,0.0,9e-08
1560461065419862477,4654,1560461065416119232,base_link,-0.00537522516053,0.0081855773485,-0.417017040336,-0.908846022258,1.0,0.0,0.0,0.0,1.0,0.0,0.0,0.0,1.0,0.000492543331347,-0.00018307386199,-0.00819056015462,1.21846967915e-07,0.0,0.0,0.0,1.21846967915e-07,0.0,0.0,0.0,1.21846967915e-07,0.186418890953,0.0120868086815,9.83422851562,9e-08,0.0,0.0,0.0,9e-08,0.0,0.0,0.0,9e-08
1560461065439449211,4655,1560461065436119232,base_link,-0.00538586477023,0.00819380767313,-0.41699318522,-0.908856727558,1.0,0.0,0.0,0.0,1.0,0.0,0.0,0.0,1.0,0.000467226433102,0.00012671505101,-0.0101036811247,1.21846967915e-07,0.0,0.0,0.0,1.21846967915e-07,0.0,0.0,0.0,1.21846967915e-07,0.180270403624,0.0266549736261,9.79984474182,9e-08,0.0,0.0,0.0,9e-08,0.0,0.0,0.0,9e-08
1560461065459376986,4656,1560461065456119232,base_link,-0.00538015107345,0.00818776766754,-0.416970088747,-0.908867517151,1.0,0.0,0.0,0.0,1.0,0.0,0.0,0.0,1.0,-0.00110939983279,0.000562318135053,-0.00890504568815,1.21846967915e-07,0.0,0.0,0.0,1.21846967915e-07,0.0,0.0,0.0,1.21846967915e-07,0.191820561886,0.0227631554008,9.8477678299,9e-08,0.0,0.0,0.0,9e-08,0.0,0.0,0.0,9e-08
1560461065480424481,4657,1560461065476116416,base_link,-0.00537810876229,0.00819523111708,-0.416954072945,-0.908874766409,1.0,0.0,0.0,0.0,1.0,0.0,0.0,0.0,1.0,-4.06672479585e-05,-0.000400486664148,-0.00827784370631,1.21846967915e-07,0.0,0.0,0.0,1.21846967915e-07,0.0,0.0,0.0,1.21846967915e-07,0.193183243275,0.0297951251268,9.76201915741,9e-08,0.0,0.0,0.0,9e-08,0.0,0.0,0.0,9e-08
1560461065502698504,4658,1560461065500116416,base_link,-0.00538029414224,0.008192126409,-0.416924359416,-0.908888464135,1.0,0.0,0.0,0.0,1.0,0.0,0.0,0.0,1.0,-0.000170980594703,0.000126116385218,-0.0100835766643,1.21846967915e-07,0.0,0.0,0.0,1.21846967915e-07,0.0,0.0,0.0,1.21846967915e-07,0.199585139751,0.0205007791519,9.81105709076,9e-08,0.0,0.0,0.0,9e-08,0.0,0.0,0.0,9e-08
1560461065519027028,4659,1560461065516116416,base_link,-0.00538484682506,0.00819092308355,-0.416913274795,-0.908893395316,1.0,0.0,0.0,0.0,1.0,0.0,0.0,0.0,1.0,0.000697304203641,-8.09928169474e-05,-0.00881251972169,1.21846967915e-07,0.0,0.0,0.0,1.21846967915e-07,0.0,0.0,0.0,1.21846967915e-07,0.162038743496,0.0117783844471,9.77948093414,9e-08,0.0,0.0,0.0,9e-08,0.0,0.0,0.0,9e-08
1560461065540853699,4660,1560461065536116416,base_link,-0.00540107171537,0.00819329680723,-0.416895172724,-0.908901719319,1.0,0.0,0.0,0.0,1.0,0.0,0.0,0.0,1.0,0.00144793861546,0.000559666194022,-0.00840057991445,1.21846967915e-07,0.0,0.0,0.0,1.21846967915e-07,0.0,0.0,0.0,1.21846967915e-07,0.188542455435,0.0394398495555,9.79886627197,9e-08,0.0,0.0,0.0,9e-08,0.0,0.0,0.0,9e-08
1560461065559035114,4661,1560461065556116416,base_link,-0.00539233612248,0.00819584735011,-0.416873256363,-0.908911750269,1.0,0.0,0.0,0.0,1.0,0.0,0.0,0.0,1.0,-0.0014222660102,0.000152997206897,-0.00867452565581,1.21846967915e-07,0.0,0.0,0.0,1.21846967915e-07,0.0,0.0,0.0,1.21846967915e-07,0.195449903607,0.0415510162711,9.84680461884,9e-08,0.0,0.0,0.0,9e-08,0.0,0.0,0.0,9e-08
1560461065580120797,4662,1560461065576114368,base_link,-0.00538362473109,0.00820052186366,-0.416853089096,-0.908920959355,1.0,0.0,0.0,0.0,1.0,0.0,0.0,0.0,1.0,-0.00112275208812,-0.000724528857972,-0.00920361280441,1.21846967915e-07,0.0,0.0,0.0,1.21846967915e-07,0.0,0.0,0.0,1.21846967915e-07,0.186641395092,0.0592030957341,9.8572845459,9e-08,0.0,0.0,0.0,9e-08,0.0,0.0,0.0,9e-08
1560461065599948848,4663,1560461065596114368,base_link,-0.00538594791148,0.0081975954565,-0.416830329797,-0.908931496067,1.0,0.0,0.0,0.0,1.0,0.0,0.0,0.0,1.0,0.0015221578069,-0.000832784746308,-0.0106181520969,1.21846967915e-07,0.0,0.0,0.0,1.21846967915e-07,0.0,0.0,0.0,1.21846967915e-07,0.187925994396,0.0429170280695,9.81595993042,9e-08,0.0,0.0,0.0,9e-08,0.0,0.0,0.0,9e-08
1560461065619945437,4664,1560461065616114368,base_link,-0.00538524195176,0.00820540842855,-0.416805589597,-0.908942664982,1.0,0.0,0.0,0.0,1.0,0.0,0.0,0.0,1.0,5.34040300408e-05,0.000342100800481,-0.00922073889524,1.21846967915e-07,0.0,0.0,0.0,1.21846967915e-07,0.0,0.0,0.0,1.21846967915e-07,0.199381262064,0.0780209451914,9.81658935547,9e-08,0.0,0.0,0.0,9e-08,0.0,0.0,0.0,9e-08
1560461065639719182,4665,1560461065636114368,base_link,-0.00540274491233,0.00819103618857,-0.416787023911,-0.908951284013,1.0,0.0,0.0,0.0,1.0,0.0,0.0,0.0,1.0,0.0030311003793,0.000663194456138,-0.00936477724463,1.21846967915e-07,0.0,0.0,0.0,1.21846967915e-07,0.0,0.0,0.0,1.21846967915e-07,0.204311057925,0.038235604763,9.86193847656,9e-08,0.0,0.0,0.0,9e-08,0.0,0.0,0.0,9e-08
1560461065659605627,4666,1560461065656114368,base_link,-0.00541797655289,0.00818966032445,-0.416761967609,-0.908962684735,1.0,0.0,0.0,0.0,1.0,0.0,0.0,0.0,1.0,0.00102235842496,3.0062336009e-05,-0.0092234024778,1.21846967915e-07,0.0,0.0,0.0,1.21846967915e-07,0.0,0.0,0.0,1.21846967915e-07,0.200836360455,0.0654853135347,9.77377605438,9e-08,0.0,0.0,0.0,9e-08,0.0,0.0,0.0,9e-08
1560461065682029174,4667,1560461065678112576,base_link,-0.0054064027978,0.0081806387586,-0.416730842162,-0.908977035737,1.0,0.0,0.0,0.0,1.0,0.0,0.0,0.0,1.0,-0.000609415350482,0.00064968544757,-0.0106923598796,1.21846967915e-07,0.0,0.0,0.0,1.21846967915e-07,0.0,0.0,0.0,1.21846967915e-07,0.171767324209,0.0279877185822,9.81559848785,9e-08,0.0,0.0,0.0,9e-08,0.0,0.0,0.0,9e-08
1560461065700809967,4668,1560461065698112576,base_link,-0.00541518547663,0.00818761373276,-0.416711517831,-0.908985823355,1.0,0.0,0.0,0.0,1.0,0.0,0.0,0.0,1.0,0.0025983825326,-0.00146910978947,-0.00975915230811,1.21846967915e-07,0.0,0.0,0.0,1.21846967915e-07,0.0,0.0,0.0,1.21846967915e-07,0.214607313275,0.0184482857585,9.81047058105,9e-08,0.0,0.0,0.0,9e-08,0.0,0.0,0.0,9e-08
1560461065720579277,4669,1560461065718112576,base_link,-0.00543127561228,0.00819058450935,-0.416686503677,-0.908997097637,1.0,0.0,0.0,0.0,1.0,0.0,0.0,0.0,1.0,0.000998846138828,0.00108125049155,-0.0101724518463,1.21846967915e-07,0.0,0.0,0.0,1.21846967915e-07,0.0,0.0,0.0,1.21846967915e-07,0.205465912819,0.0362913832068,9.84736156464,9e-08,0.0,0.0,0.0,9e-08,0.0,0.0,0.0,9e-08
1560461065741311314,4670,1560461065738112576,base_link,-0.0054195524499,0.00818703865877,-0.416663681158,-0.909007781863,1.0,0.0,0.0,0.0,1.0,0.0,0.0,0.0,1.0,0.000694645103067,0.00150949438103,-0.00920859258622,1.21846967915e-07,0.0,0.0,0.0,1.21846967915e-07,0.0,0.0,0.0,1.21846967915e-07,0.181415766478,-0.00357447192073,9.78092575073,9e-08,0.0,0.0,0.0,9e-08,0.0,0.0,0.0,9e-08
1560461065761299039,4671,1560461065758112576,base_link,-0.00542293440522,0.00819585953318,-0.416654450999,-0.909011785814,1.0,0.0,0.0,0.0,1.0,0.0,0.0,0.0,1.0,0.0010274926899,-0.00199470994994,-0.0080259591341,1.21846967915e-07,0.0,0.0,0.0,1.21846967915e-07,0.0,0.0,0.0,1.21846967915e-07,0.164343520999,0.00440859049559,9.85849475861,9e-08,0.0,0.0,0.0,9e-08,0.0,0.0,0.0,9e-08
1560461065781917814,4672,1560461065778110528,base_link,-0.00542511813881,0.00819545782103,-0.416636327854,-0.909020215183,1.0,0.0,0.0,0.0,1.0,0.0,0.0,0.0,1.0,-0.00121763616335,0.00182971684262,-0.00907829031348,1.21846967915e-07,0.0,0.0,0.0,1.21846967915e-07,0.0,0.0,0.0,1.21846967915e-07,0.201140299439,0.0539684519172,9.86736965179,9e-08,0.0,0.0,0.0,9e-08,0.0,0.0,0.0,9e-08
1560461065800719155,4673,1560461065798110528,base_link,-0.00540170655228,0.00818217662467,-0.416610618276,-0.909032184888,1.0,0.0,0.0,0.0,1.0,0.0,0.0,0.0,1.0,-0.0016631038161,0.00118575093802,-0.00980943348259,1.21846967915e-07,0.0,0.0,0.0,1.21846967915e-07,0.0,0.0,0.0,1.21846967915e-07,0.195981264114,0.025790296495,9.82575702667,9e-08,0.0,0.0,0.0,9e-08,0.0,0.0,0.0,9e-08
1560461065821768399,4674,1560461065818110528,base_link,-0.00542822589266,0.00818950778908,-0.416592874453,-0.909040150643,1.0,0.0,0.0,0.0,1.0,0.0,0.0,0.0,1.0,0.00283275265247,-0.00359787372872,-0.00846186373383,1.21846967915e-07,0.0,0.0,0.0,1.21846967915e-07,0.0,0.0,0.0,1.21846967915e-07,0.181662932038,-0.0280478596687,9.82284832001,9e-08,0.0,0.0,0.0,9e-08,0.0,0.0,0.0,9e-08
1560461065841948251,4675,1560461065838110528,base_link,-0.00544802684429,0.00820091921295,-0.41657371871,-0.909048685379,1.0,0.0,0.0,0.0,1.0,0.0,0.0,0.0,1.0,-0.0013380155433,-6.73288595863e-05,-0.00915328226984,1.21846967915e-07,0.0,0.0,0.0,1.21846967915e-07,0.0,0.0,0.0,1.21846967915e-07,0.211618334055,0.0418275520206,9.83141326904,9e-08,0.0,0.0,0.0,9e-08,0.0,0.0,0.0,9e-08
1560461065861637321,4676,1560461065858110528,base_link,-0.00541959015158,0.00818737896164,-0.416548346307,-0.909060570791,1.0,0.0,0.0,0.0,1.0,0.0,0.0,0.0,1.0,-0.00345405936241,0.00267644412816,-0.00880038179457,1.21846967915e-07,0.0,0.0,0.0,1.21846967915e-07,0.0,0.0,0.0,1.21846967915e-07,0.187255650759,0.0101063027978,9.82041549683,9e-08,0.0,0.0,0.0,9e-08,0.0,0.0,0.0,9e-08
1560461065880656630,4677,1560461065878106688,base_link,-0.00541324408742,0.00818826174055,-0.416527694352,-0.909070011685,1.0,0.0,0.0,0.0,1.0,0.0,0.0,0.0,1.0,-0.000671945686918,-0.000396390561946,-0.00777596235275,1.21846967915e-07,0.0,0.0,0.0,1.21846967915e-07,0.0,0.0,0.0,1.21846967915e-07,0.194796025753,0.0299449414015,9.81310272217,9e-08,0.0,0.0,0.0,9e-08,0.0,0.0,0.0,9e-08
1560461065901229523,4678,1560461065898106688,base_link,-0.0054277539632,0.00819740151515,-0.416505377595,-0.909080190149,1.0,0.0,0.0,0.0,1.0,0.0,0.0,0.0,1.0,0.00089477567235,-0.00136954244226,-0.00968479271978,1.21846967915e-07,0.0,0.0,0.0,1.21846967915e-07,0.0,0.0,0.0,1.21846967915e-07,0.18238273263,0.0376328453422,9.7991733551,9e-08,0.0,0.0,0.0,9e-08,0.0,0.0,0.0,9e-08
1560461065920223735,4679,1560461065918106688,base_link,-0.00542251129038,0.00819705709637,-0.416488223828,-0.909088071609,1.0,0.0,0.0,0.0,1.0,0.0,0.0,0.0,1.0,-0.000897101825103,0.00162035692483,-0.00871728174388,1.21846967915e-07,0.0,0.0,0.0,1.21846967915e-07,0.0,0.0,0.0,1.21846967915e-07,0.177560985088,0.0176629424095,9.83454418182,9e-08,0.0,0.0,0.0,9e-08,0.0,0.0,0.0,9e-08
1560461065941591204,4680,1560461065938106688,base_link,-0.00541703697452,0.00819471185474,-0.416470290344,-0.909096227025,1.0,0.0,0.0,0.0,1.0,0.0,0.0,0.0,1.0,0.000374429102521,-8.45955801196e-05,-0.00915210414678,1.21846967915e-07,0.0,0.0,0.0,1.21846967915e-07,0.0,0.0,0.0,1.21846967915e-07,0.189492374659,0.0294084325433,9.79554843903,9e-08,0.0,0.0,0.0,9e-08,0.0,0.0,0.0,9e-08
1560461065960940104,4681,1560461065958106688,base_link,-0.00544244288077,0.00820044588409,-0.416458194199,-0.909101663968,1.0,0.0,0.0,0.0,1.0,0.0,0.0,0.0,1.0,0.00083423248725,-0.00251816958189,-0.0065906685777,1.21846967915e-07,0.0,0.0,0.0,1.21846967915e-07,0.0,0.0,0.0,1.21846967915e-07,0.183239519596,0.0548112094402,9.86058807373,9e-08,0.0,0.0,0.0,9e-08,0.0,0.0,0.0,9e-08
1560461065981834215,4682,1560461065978104384,base_link,-0.00544287513292,0.00819660237138,-0.416440492522,-0.909109756163,1.0,0.0,0.0,0.0,1.0,0.0,0.0,0.0,1.0,-0.00143115175888,0.00331506109796,-0.00945614092052,1.21846967915e-07,0.0,0.0,0.0,1.21846967915e-07,0.0,0.0,0.0,1.21846967915e-07,0.188599839807,0.0366141349077,9.79707336426,9e-08,0.0,0.0,0.0,9e-08,0.0,0.0,0.0,9e-08
1560461066001528577,4683,1560461065998104384,base_link,-0.00542356874822,0.00819167036693,-0.416417269609,-0.909120503609,1.0,0.0,0.0,0.0,1.0,0.0,0.0,0.0,1.0,-0.00163587147836,-0.000395173759898,-0.0080479811877,1.21846967915e-07,0.0,0.0,0.0,1.21846967915e-07,0.0,0.0,0.0,1.21846967915e-07,0.198087885976,-0.0180967599154,9.78718185425,9e-08,0.0,0.0,0.0,9e-08,0.0,0.0,0.0,9e-08
1560461066020962643,4684,1560461066018104384,base_link,-0.00544786105571,0.00820003659868,-0.416403340075,-0.909126762416,1.0,0.0,0.0,0.0,1.0,0.0,0.0,0.0,1.0,0.00155079760589,-0.00242283008993,-0.00882282480597,1.21846967915e-07,0.0,0.0,0.0,1.21846967915e-07,0.0,0.0,0.0,1.21846967915e-07,0.197438538074,0.0628955662251,9.8475856781,9e-08,0.0,0.0,0.0,9e-08,0.0,0.0,0.0,9e-08
1560461066041943369,4685,1560461066039104384,base_link,-0.00544475000914,0.00819859973688,-0.416379653546,-0.909137636303,1.0,0.0,0.0,0.0,1.0,0.0,0.0,0.0,1.0,-0.00281482446007,0.00257595861331,-0.00889079738408,1.21846967915e-07,0.0,0.0,0.0,1.21846967915e-07,0.0,0.0,0.0,1.21846967915e-07,0.160524562001,0.0450273156166,9.78962421417,9e-08,0.0,0.0,0.0,9e-08,0.0,0.0,0.0,9e-08
1560461066062431794,4686,1560461066059102336,base_link,-0.00542381990063,0.00817888974671,-0.416357568598,-0.909148004428,1.0,0.0,0.0,0.0,1.0,0.0,0.0,0.0,1.0,-0.00163298693951,0.00172667752486,-0.00815766770393,1.21846967915e-07,0.0,0.0,0.0,1.21846967915e-07,0.0,0.0,0.0,1.21846967915e-07,0.180859804153,-0.0360348038375,9.84988975525,9e-08,0.0,0.0,0.0,9e-08,0.0,0.0,0.0,9e-08
1560461066081803786,4687,1560461066079102336,base_link,-0.00544508504366,0.00818685739439,-0.416339171498,-0.90915620199,1.0,0.0,0.0,0.0,1.0,0.0,0.0,0.0,1.0,0.00144691427704,-0.000517398410011,-0.0090360539034,1.21846967915e-07,0.0,0.0,0.0,1.21846967915e-07,0.0,0.0,0.0,1.21846967915e-07,0.203478574753,0.0390214174986,9.85779666901,9e-08,0.0,0.0,0.0,9e-08,0.0,0.0,0.0,9e-08
1560461066102227031,4688,1560461066099102336,base_link,-0.00544147202153,0.00818603314362,-0.416322966035,-0.909163640909,1.0,0.0,0.0,0.0,1.0,0.0,0.0,0.0,1.0,-0.00238257134333,0.00236896774732,-0.00835470948368,1.21846967915e-07,0.0,0.0,0.0,1.21846967915e-07,0.0,0.0,0.0,1.21846967915e-07,0.208939656615,0.061424203217,9.84080982208,9e-08,0.0,0.0,0.0,9e-08,0.0,0.0,0.0,9e-08
1560461066121806192,4689,1560461066119102336,base_link,-0.00543061056464,0.00817801544656,-0.416304800743,-0.909172112425,1.0,0.0,0.0,0.0,1.0,0.0,0.0,0.0,1.0,-0.000169063627254,-0.000836636463646,-0.00996190309525,1.21846967915e-07,0.0,0.0,0.0,1.21846967915e-07,0.0,0.0,0.0,1.21846967915e-07,0.189723044634,0.035030066967,9.79076766968,9e-08,0.0,0.0,0.0,9e-08,0.0,0.0,0.0,9e-08
1560461066140148252,4690,1560461066135102336,base_link,-0.00544194963094,0.00818014229836,-0.416295191262,-0.909176495698,1.0,0.0,0.0,0.0,1.0,0.0,0.0,0.0,1.0,0.00231047812849,-0.000930479145609,-0.007655645255,1.21846967915e-07,0.0,0.0,0.0,1.21846967915e-07,0.0,0.0,0.0,1.21846967915e-07,0.184692680836,0.0545697510242,9.8123216629,9e-08,0.0,0.0,0.0,9e-08,0.0,0.0,0.0,9e-08
1560461066161796549,4691,1560461066159102336,base_link,-0.00545148724873,0.00818339361492,-0.416273928177,-0.909186041959,1.0,0.0,0.0,0.0,1.0,0.0,0.0,0.0,1.0,-0.00163840677124,0.000664848193992,-0.00888763181865,1.21846967915e-07,0.0,0.0,0.0,1.21846967915e-07,0.0,0.0,0.0,1.21846967915e-07,0.197488874197,0.0605666711926,9.83793258667,9e-08,0.0,0.0,0.0,9e-08,0.0,0.0,0.0,9e-08
1560461066179910939,4692,1560461066175100544,base_link,-0.00542686361103,0.00817914929556,-0.416252327917,-0.909196178276,1.0,0.0,0.0,0.0,1.0,0.0,0.0,0.0,1.0,-0.00303016905673,0.00268385140225,-0.00896763708442,1.21846967915e-07,0.0,0.0,0.0,1.21846967915e-07,0.0,0.0,0.0,1.21846967915e-07,0.178342014551,0.0276348292828,9.83596134186,9e-08,0.0,0.0,0.0,9e-08,0.0,0.0,0.0,9e-08
1560461066201739001,4693,1560461066199100544,base_link,-0.00543581858157,0.00818062830421,-0.416232518898,-0.909205281995,1.0,0.0,0.0,0.0,1.0,0.0,0.0,0.0,1.0,0.00186933297664,-0.00242710579187,-0.00878873188049,1.21846967915e-07,0.0,0.0,0.0,1.21846967915e-07,0.0,0.0,0.0,1.21846967915e-07,0.197249859571,0.0062559992075,9.83028125763,9e-08,0.0,0.0,0.0,9e-08,0.0,0.0,0.0,9e-08
1560461066221673001,4694,1560461066219100544,base_link,-0.00545042320544,0.00818015604548,-0.416215259764,-0.909212931648,1.0,0.0,0.0,0.0,1.0,0.0,0.0,0.0,1.0,0.000156307694851,0.00214410712942,-0.00931664742529,1.21846967915e-07,0.0,0.0,0.0,1.21846967915e-07,0.0,0.0,0.0,1.21846967915e-07,0.195013254881,0.0456310659647,9.83498382568,9e-08,0.0,0.0,0.0,9e-08,0.0,0.0,0.0,9e-08
1560461066241899376,4695,1560461066239100544,base_link,-0.00544133356255,0.00817249495026,-0.416189444819,-0.909224922427,1.0,0.0,0.0,0.0,1.0,0.0,0.0,0.0,1.0,-0.00036674932926,0.000766795361415,-0.00898335222155,1.21846967915e-07,0.0,0.0,0.0,1.21846967915e-07,0.0,0.0,0.0,1.21846967915e-07,0.20896923542,0.0303753837943,9.81058216095,9e-08,0.0,0.0,0.0,9e-08,0.0,0.0,0.0,9e-08
1560461066262598096,4696,1560461066259098496,base_link,-0.00545819559468,0.00817902705324,-0.416167486311,-0.909234826936,1.0,0.0,0.0,0.0,1.0,0.0,0.0,0.0,1.0,0.0016610979801,-0.00295614590868,-0.00824333168566,1.21846967915e-07,0.0,0.0,0.0,1.21846967915e-07,0.0,0.0,0.0,1.21846967915e-07,0.193419694901,-0.00659150630236,9.81698703766,9e-08,0.0,0.0,0.0,9e-08,0.0,0.0,0.0,9e-08
1560461066281810165,4697,1560461066279098496,base_link,-0.00545744896984,0.00818074437268,-0.416150690792,-0.909242603029,1.0,0.0,0.0,0.0,1.0,0.0,0.0,0.0,1.0,-0.00113086029887,0.00129039632156,-0.0103504117578,1.21846967915e-07,0.0,0.0,0.0,1.21846967915e-07,0.0,0.0,0.0,1.21846967915e-07,0.225585475564,0.0469694212079,9.79673290253,9e-08,0.0,0.0,0.0,9e-08,0.0,0.0,0.0,9e-08
1560461066302088871,4698,1560461066299098496,base_link,-0.00544164711205,0.00818091238385,-0.416126709235,-0.909253603357,1.0,0.0,0.0,0.0,1.0,0.0,0.0,0.0,1.0,0.000278179824818,-0.000402999809012,-0.0084434710443,1.21846967915e-07,0.0,0.0,0.0,1.21846967915e-07,0.0,0.0,0.0,1.21846967915e-07,0.202332615852,0.00528989732266,9.83999252319,9e-08,0.0,0.0,0.0,9e-08,0.0,0.0,0.0,9e-08
1560461066319100104,4699,1560461066315098496,base_link,-0.00545506849608,0.00818050252221,-0.416112800775,-0.909259925384,1.0,0.0,0.0,0.0,1.0,0.0,0.0,0.0,1.0,0.0026116555091,-0.00136606069282,-0.00825559813529,1.21846967915e-07,0.0,0.0,0.0,1.21846967915e-07,0.0,0.0,0.0,1.21846967915e-07,0.218017891049,0.00195326656103,9.81592941284,9e-08,0.0,0.0,0.0,9e-08,0.0,0.0,0.0,9e-08
1560461066342872489,4700,1560461066339098496,base_link,-0.00547833717845,0.00818261809644,-0.416089303907,-0.909270441023,1.0,0.0,0.0,0.0,1.0,0.0,0.0,0.0,1.0,-0.000818595057353,0.000770033337176,-0.0105612073094,1.21846967915e-07,0.0,0.0,0.0,1.21846967915e-07,0.0,0.0,0.0,1.21846967915e-07,0.193505555391,0.0482485443354,9.82580852509,9e-08,0.0,0.0,0.0,9e-08,0.0,0.0,0.0,9e-08
1560461066361586087,4701,1560461066359098496,base_link,-0.00546907878353,0.00817496243422,-0.416070843587,-0.90927903898,1.0,0.0,0.0,0.0,1.0,0.0,0.0,0.0,1.0,-0.000452922366094,0.00034651835449,-0.0074736950919,1.21846967915e-07,0.0,0.0,0.0,1.21846967915e-07,0.0,0.0,0.0,1.21846967915e-07,0.169056266546,-0.00564139708876,9.83946800232,9e-08,0.0,0.0,0.0,9e-08,0.0,0.0,0.0,9e-08
1560461066382239813,4702,1560461066379096448,base_link,-0.00547453630651,0.00818056450771,-0.416055712869,-0.909285908916,1.0,0.0,0.0,0.0,1.0,0.0,0.0,0.0,1.0,0.000276004138868,-0.000191973929759,-0.00853635370731,1.21846967915e-07,0.0,0.0,0.0,1.21846967915e-07,0.0,0.0,0.0,1.21846967915e-07,0.205877646804,0.0287712365389,9.77579689026,9e-08,0.0,0.0,0.0,9e-08,0.0,0.0,0.0,9e-08
1560461066401496109,4703,1560461066399096448,base_link,-0.00547492460081,0.00817815975012,-0.416040329269,-0.90929294744,1.0,0.0,0.0,0.0,1.0,0.0,0.0,0.0,1.0,0.00101326988079,0.00150710414164,-0.00908394530416,1.21846967915e-07,0.0,0.0,0.0,1.21846967915e-07,0.0,0.0,0.0,1.21846967915e-07,0.178438931704,0.0306405648589,9.86015892029,9e-08,0.0,0.0,0.0,9e-08,0.0,0.0,0.0,9e-08
1560461066421932188,4704,1560461066419096448,base_link,-0.00547276119979,0.00818044432334,-0.416020878498,-0.909301861498,1.0,0.0,0.0,0.0,1.0,0.0,0.0,0.0,1.0,-4.06871113228e-05,-0.000827619747724,-0.00799004267901,1.21846967915e-07,0.0,0.0,0.0,1.21846967915e-07,0.0,0.0,0.0,1.21846967915e-07,0.187636643648,0.0447366759181,9.85948467255,9e-08,0.0,0.0,0.0,9e-08,0.0,0.0,0.0,9e-08
1560461066441607922,4705,1560461066439096448,base_link,-0.00547609656308,0.00818344152403,-0.416008360884,-0.909307551323,1.0,0.0,0.0,0.0,1.0,0.0,0.0,0.0,1.0,0.00081106176367,0.000447980011813,-0.0084282271564,1.21846967915e-07,0.0,0.0,0.0,1.21846967915e-07,0.0,0.0,0.0,1.21846967915e-07,0.218931376934,0.063933417201,9.78437328339,9e-08,0.0,0.0,0.0,9e-08,0.0,0.0,0.0,9e-08
1560461066462400855,4706,1560461066459093888,base_link,-0.00546738031493,0.00818003660197,-0.415996412253,-0.909313093634,1.0,0.0,0.0,0.0,1.0,0.0,0.0,0.0,1.0,-0.0012122138869,0.00119097798597,-0.00861983560026,1.21846967915e-07,0.0,0.0,0.0,1.21846967915e-07,0.0,0.0,0.0,1.21846967915e-07,0.172418832779,0.038616091013,9.86308097839,9e-08,0.0,0.0,0.0,9e-08,0.0,0.0,0.0,9e-08
1560461066479350661,4707,1560461066475093888,base_link,-0.00547176984335,0.00817926775126,-0.415984231814,-0.909318614871,1.0,0.0,0.0,0.0,1.0,0.0,0.0,0.0,1.0,-0.000142125980346,-0.00136292178649,-0.00808501522988,1.21846967915e-07,0.0,0.0,0.0,1.21846967915e-07,0.0,0.0,0.0,1.21846967915e-07,0.211565971375,0.0487353727222,9.79921913147,9e-08,0.0,0.0,0.0,9e-08,0.0,0.0,0.0,9e-08
1560461066500474677,4708,1560461066496093888,base_link,-0.00546436558049,0.00817813464311,-0.415965160365,-0.909327402489,1.0,0.0,0.0,0.0,1.0,0.0,0.0,0.0,1.0,0.000839579035528,0.0010127669666,-0.00888127088547,1.21846967915e-07,0.0,0.0,0.0,1.21846967915e-07,0.0,0.0,0.0,1.21846967915e-07,0.213366359472,0.0558717548847,9.83029842377,9e-08,0.0,0.0,0.0,9e-08,0.0,0.0,0.0,9e-08
1560461066519335690,4709,1560461066516093888,base_link,-0.00546313558399,0.00818663892225,-0.415948048744,-0.909335157509,1.0,0.0,0.0,0.0,1.0,0.0,0.0,0.0,1.0,3.79200064344e-05,-0.00222034426406,-0.0105293113738,1.21846967915e-07,0.0,0.0,0.0,1.21846967915e-07,0.0,0.0,0.0,1.21846967915e-07,0.198360681534,0.00886049121618,9.89721679688,9e-08,0.0,0.0,0.0,9e-08,0.0,0.0,0.0,9e-08
1560461066540700805,4710,1560461066536093888,base_link,-0.00547849045469,0.00819749939132,-0.415933487008,-0.90934162705,1.0,0.0,0.0,0.0,1.0,0.0,0.0,0.0,1.0,0.00145701109432,-0.00147250154987,-0.00830588582903,1.21846967915e-07,0.0,0.0,0.0,1.21846967915e-07,0.0,0.0,0.0,1.21846967915e-07,0.196773946285,0.0437690243125,9.82789707184,9e-08,0.0,0.0,0.0,9e-08,0.0,0.0,0.0,9e-08
1560461066562338619,4711,1560461066560091584,base_link,-0.00547554033993,0.00819697634235,-0.415913909797,-0.909350667549,1.0,0.0,0.0,0.0,1.0,0.0,0.0,0.0,1.0,-0.00154601025861,0.00182463577949,-0.00966406147927,1.21846967915e-07,0.0,0.0,0.0,1.21846967915e-07,0.0,0.0,0.0,1.21846967915e-07,0.198894754052,0.0202585235238,9.80758190155,9e-08,0.0,0.0,0.0,9e-08,0.0,0.0,0.0,9e-08
1560461066580784032,4712,1560461066576091584,base_link,-0.00547648642143,0.00819738159417,-0.41590457427,-0.90935486116,1.0,0.0,0.0,0.0,1.0,0.0,0.0,0.0,1.0,0.00081861182116,-0.000400618446292,-0.00808086059988,1.21846967915e-07,0.0,0.0,0.0,1.21846967915e-07,0.0,0.0,0.0,1.21846967915e-07,0.206029266119,0.025562889874,9.84177970886,9e-08,0.0,0.0,0.0,9e-08,0.0,0.0,0.0,9e-08
1560461066602147386,4713,1560461066600091584,base_link,-0.00549248296144,0.00820756614963,-0.415890138974,-0.909361288555,1.0,0.0,0.0,0.0,1.0,0.0,0.0,0.0,1.0,-0.000250937213423,-0.000617454876192,-0.00827706977725,1.21846967915e-07,0.0,0.0,0.0,1.21846967915e-07,0.0,0.0,0.0,1.21846967915e-07,0.201628252864,0.0331837907434,9.82882213593,9e-08,0.0,0.0,0.0,9e-08,0.0,0.0,0.0,9e-08
1560461066618901706,4714,1560461066616091584,base_link,-0.00548011903526,0.00821362912196,-0.415880740227,-0.90936562968,1.0,0.0,0.0,0.0,1.0,0.0,0.0,0.0,1.0,-0.00174775253981,0.000871469965205,-0.00868314132094,1.21846967915e-07,0.0,0.0,0.0,1.21846967915e-07,0.0,0.0,0.0,1.21846967915e-07,0.182479962707,0.0391488000751,9.78709697723,9e-08,0.0,0.0,0.0,9e-08,0.0,0.0,0.0,9e-08
1560461066639672934,4715,1560461066636091584,base_link,-0.00548192632834,0.0082061952246,-0.415861731998,-0.909374354078,1.0,0.0,0.0,0.0,1.0,0.0,0.0,0.0,1.0,0.000706114340574,0.000127110455651,-0.00828297436237,1.21846967915e-07,0.0,0.0,0.0,1.21846967915e-07,0.0,0.0,0.0,1.21846967915e-07,0.182728841901,0.0212496370077,9.80111026764,9e-08,0.0,0.0,0.0,9e-08,0.0,0.0,0.0,9e-08
1560461066660907671,4716,1560461066656091584,base_link,-0.00550884812173,0.00821364682034,-0.415853766244,-0.909377767973,1.0,0.0,0.0,0.0,1.0,0.0,0.0,0.0,1.0,0.00154606741853,-0.00168792391196,-0.00998780597001,1.21846967915e-07,0.0,0.0,0.0,1.21846967915e-07,0.0,0.0,0.0,1.21846967915e-07,0.21990275383,0.0478542298079,9.83843517303,9e-08,0.0,0.0,0.0,9e-08,0.0,0.0,0.0,9e-08
1560461066680341361,4717,1560461066676088256,base_link,-0.0054914515161,0.00820486628178,-0.415832650673,-0.909387503895,1.0,0.0,0.0,0.0,1.0,0.0,0.0,0.0,1.0,-0.00294426968321,0.00235580001026,-0.0104658193886,1.21846967915e-07,0.0,0.0,0.0,1.21846967915e-07,0.0,0.0,0.0,1.21846967915e-07,0.191293746233,0.0326761230826,9.8079957962,9e-08,0.0,0.0,0.0,9e-08,0.0,0.0,0.0,9e-08
1560461066702512456,4718,1560461066700088256,base_link,-0.00547992550549,0.00819726684279,-0.41581195657,-0.909397155523,1.0,0.0,0.0,0.0,1.0,0.0,0.0,0.0,1.0,0.00306972791441,-0.00168397964444,-0.00701662758365,1.21846967915e-07,0.0,0.0,0.0,1.21846967915e-07,0.0,0.0,0.0,1.21846967915e-07,0.151415601373,-0.0355603322387,9.78682994843,9e-08,0.0,0.0,0.0,9e-08,0.0,0.0,0.0,9e-08
1560461066719602180,4719,1560461066716088256,base_link,-0.00551110347204,0.00821469604638,-0.415805213075,-0.909400021509,1.0,0.0,0.0,0.0,1.0,0.0,0.0,0.0,1.0,0.0022019376047,-0.00402041524649,-0.00784185994416,1.21846967915e-07,0.0,0.0,0.0,1.21846967915e-07,0.0,0.0,0.0,1.21846967915e-07,0.212878227234,0.0550584644079,9.82427120209,9e-08,0.0,0.0,0.0,9e-08,0.0,0.0,0.0,9e-08
1560461066740899472,4720,1560461066736088256,base_link,-0.00549767640806,0.00820319851781,-0.415789681961,-0.909407207546,1.0,0.0,0.0,0.0,1.0,0.0,0.0,0.0,1.0,-0.00101721845567,0.00299136387184,-0.00985072460026,1.21846967915e-07,0.0,0.0,0.0,1.21846967915e-07,0.0,0.0,0.0,1.21846967915e-07,0.207841783762,0.0674455165863,9.83897209167,9e-08,0.0,0.0,0.0,9e-08,0.0,0.0,0.0,9e-08
1560461066759408367,4721,1560461066756088256,base_link,-0.00548383989404,0.00819680322746,-0.415774129774,-0.909414498951,1.0,0.0,0.0,0.0,1.0,0.0,0.0,0.0,1.0,-0.000257440318819,-0.000620415143203,-0.00866905134171,1.21846967915e-07,0.0,0.0,0.0,1.21846967915e-07,0.0,0.0,0.0,1.21846967915e-07,0.183747336268,0.0053548887372,9.77875328064,9e-08,0.0,0.0,0.0,9e-08,0.0,0.0,0.0,9e-08
1560461066779349108,4722,1560461066776086464,base_link,-0.00551017517124,0.00820521802686,-0.415760916737,-0.909420294143,1.0,0.0,0.0,0.0,1.0,0.0,0.0,0.0,1.0,0.00208086776547,-0.00189864856657,-0.00901036337018,1.21846967915e-07,0.0,0.0,0.0,1.21846967915e-07,0.0,0.0,0.0,1.21846967915e-07,0.20918610692,0.0639070942998,9.79044151306,9e-08,0.0,0.0,0.0,9e-08,0.0,0.0,0.0,9e-08
1560461066800307032,4723,1560461066796086464,base_link,-0.00550042105694,0.00819808969416,-0.415743636529,-0.909428386338,1.0,0.0,0.0,0.0,1.0,0.0,0.0,0.0,1.0,-0.000793628161773,0.0027832116466,-0.00909685436636,1.21846967915e-07,0.0,0.0,0.0,1.21846967915e-07,0.0,0.0,0.0,1.21846967915e-07,0.188357263803,0.0293926894665,9.83386802673,9e-08,0.0,0.0,0.0,9e-08,0.0,0.0,0.0,9e-08
1560461066823023961,4724,1560461066820086464,base_link,-0.00549801111331,0.00819089410759,-0.415714513057,-0.909441746889,1.0,0.0,0.0,0.0,1.0,0.0,0.0,0.0,1.0,0.00186203978956,-0.00243231467903,-0.00942324660718,1.21846967915e-07,0.0,0.0,0.0,1.21846967915e-07,0.0,0.0,0.0,1.21846967915e-07,0.172970354557,0.0118668153882,9.85737609863,9e-08,0.0,0.0,0.0,9e-08,0.0,0.0,0.0,9e-08
1560461066838962056,4725,1560461066836086464,base_link,-0.0055298163435,0.00820105265053,-0.415707874928,-0.90944433892,1.0,0.0,0.0,0.0,1.0,0.0,0.0,0.0,1.0,0.00466183805838,-0.00135821581353,-0.00722722196952,1.21846967915e-07,0.0,0.0,0.0,1.21846967915e-07,0.0,0.0,0.0,1.21846967915e-07,0.197883710265,0.0563100874424,9.7979631424,9e-08,0.0,0.0,0.0,9e-08,0.0,0.0,0.0,9e-08
1560461066860935159,4726,1560461066856086464,base_link,-0.0055186308004,0.00819808738925,-0.415687349413,-0.909453990548,1.0,0.0,0.0,0.0,1.0,0.0,0.0,0.0,1.0,-0.00154628534801,0.0033128161449,-0.00950528122485,1.21846967915e-07,0.0,0.0,0.0,1.21846967915e-07,0.0,0.0,0.0,1.21846967915e-07,0.211515590549,0.0397323817015,9.81734848022,9e-08,0.0,0.0,0.0,9e-08,0.0,0.0,0.0,9e-08
1560461066880533233,4727,1560461066876082368,base_link,-0.00549329206568,0.00818567176732,-0.415669015534,-0.909462546358,1.0,0.0,0.0,0.0,1.0,0.0,0.0,0.0,1.0,-0.000788425968494,0.00172102556098,-0.008654194884,1.21846967915e-07,0.0,0.0,0.0,1.21846967915e-07,0.0,0.0,0.0,1.21846967915e-07,0.182748407125,0.00795977562666,9.83522033691,9e-08,0.0,0.0,0.0,9e-08,0.0,0.0,0.0,9e-08
1560461066902339731,4728,1560461066900082368,base_link,-0.00551263137761,0.00819167193097,-0.415648532165,-0.909471818665,1.0,0.0,0.0,0.0,1.0,0.0,0.0,0.0,1.0,0.000583457527682,-0.0014786956599,-0.0095062693581,1.21846967915e-07,0.0,0.0,0.0,1.21846967915e-07,0.0,0.0,0.0,1.21846967915e-07,0.183706581593,0.0577007979155,9.79329109192,9e-08,0.0,0.0,0.0,9e-08,0.0,0.0,0.0,9e-08
1560461066919320353,4729,1560461066916082368,base_link,-0.00550700502029,0.00818710665349,-0.415630851562,-0.909479889787,1.0,0.0,0.0,0.0,1.0,0.0,0.0,0.0,1.0,-0.000997953349724,0.00193427677732,-0.00843550357968,1.21846967915e-07,0.0,0.0,0.0,1.21846967915e-07,0.0,0.0,0.0,1.21846967915e-07,0.22730730474,0.0435262694955,9.81364154816,9e-08,0.0,0.0,0.0,9e-08,0.0,0.0,0.0,9e-08
1560461066941142998,4730,1560461066936082368,base_link,-0.00549803630264,0.00818286101705,-0.415611400792,-0.909488888139,1.0,0.0,0.0,0.0,1.0,0.0,0.0,0.0,1.0,0.000907027977519,0.0007648114115,-0.00908740889281,1.21846967915e-07,0.0,0.0,0.0,1.21846967915e-07,0.0,0.0,0.0,1.21846967915e-07,0.196559667587,0.00719474256039,9.78971862793,9e-08,0.0,0.0,0.0,9e-08,0.0,0.0,0.0,9e-08
1560461066959064076,4731,1560461066956082368,base_link,-0.0055067735419,0.00818969967249,-0.415596480807,-0.909495631634,1.0,0.0,0.0,0.0,1.0,0.0,0.0,0.0,1.0,-0.00047051825095,-0.00146668544039,-0.0083175022155,1.21846967915e-07,0.0,0.0,0.0,1.21846967915e-07,0.0,0.0,0.0,1.21846967915e-07,0.202997326851,0.0469192489982,9.84387779236,9e-08,0.0,0.0,0.0,9e-08,0.0,0.0,0.0,9e-08
1560461066979732131,4732,1560461066976079808,base_link,-0.00549461220047,0.00819280602693,-0.415567568069,-0.909508865745,1.0,0.0,0.0,0.0,1.0,0.0,0.0,0.0,1.0,-0.00367773533799,0.00118108419701,-0.00997916609049,1.21846967915e-07,0.0,0.0,0.0,1.21846967915e-07,0.0,0.0,0.0,1.21846967915e-07,0.203425243497,0.036511823535,9.84199905396,9e-08,0.0,0.0,0.0,9e-08,0.0,0.0,0.0,9e-08
1560461067001612303,4733,1560461066997079808,base_link,-0.00547419625059,0.00819523580921,-0.415548159445,-0.90951782195,1.0,0.0,0.0,0.0,1.0,0.0,0.0,0.0,1.0,-0.0014245006023,-0.000408184743719,-0.00850718934089,1.21846967915e-07,0.0,0.0,0.0,1.21846967915e-07,0.0,0.0,0.0,1.21846967915e-07,0.186622023582,-0.0077792070806,9.82872200012,9e-08,0.0,0.0,0.0,9e-08,0.0,0.0,0.0,9e-08
1560461067019907976,4734,1560461067017079808,base_link,-0.00548288903809,0.00819952029978,-0.415528856189,-0.909526588495,1.0,0.0,0.0,0.0,1.0,0.0,0.0,0.0,1.0,0.00112135289237,0.000333705858793,-0.00917818490416,1.21846967915e-07,0.0,0.0,0.0,1.21846967915e-07,0.0,0.0,0.0,1.21846967915e-07,0.186745554209,0.037428997457,9.83699131012,9e-08,0.0,0.0,0.0,9e-08,0.0,0.0,0.0,9e-08
1560461067042187085,4735,1560461067037079808,base_link,-0.00548206766845,0.00820236866941,-0.415514758068,-0.909532931595,1.0,0.0,0.0,0.0,1.0,0.0,0.0,0.0,1.0,-0.00270684575662,0.000760065449867,-0.00891722645611,1.21846967915e-07,0.0,0.0,0.0,1.21846967915e-07,0.0,0.0,0.0,1.21846967915e-07,0.190858721733,0.0639694258571,9.82126235962,9e-08,0.0,0.0,0.0,9e-08,0.0,0.0,0.0,9e-08
1560461067060413518,4736,1560461067057079808,base_link,-0.00547213788741,0.00819041896773,-0.41549741464,-0.909541002717,1.0,0.0,0.0,0.0,1.0,0.0,0.0,0.0,1.0,-0.00101081421599,0.00118360319175,-0.00936171598732,1.21846967915e-07,0.0,0.0,0.0,1.21846967915e-07,0.0,0.0,0.0,1.21846967915e-07,0.212233781815,0.0490276888013,9.77992343903,9e-08,0.0,0.0,0.0,9e-08,0.0,0.0,0.0,9e-08
1560461067081060445,4737,1560461067077077760,base_link,-0.0054740901426,0.00818916476971,-0.415476594097,-0.909550527905,1.0,0.0,0.0,0.0,1.0,0.0,0.0,0.0,1.0,0.000793057668488,0.000331946532242,-0.00991207547486,1.21846967915e-07,0.0,0.0,0.0,1.21846967915e-07,0.0,0.0,0.0,1.21846967915e-07,0.205598056316,0.0438724905252,9.81297111511,9e-08,0.0,0.0,0.0,9e-08,0.0,0.0,0.0,9e-08
1560461067100971270,4738,1560461067097077760,base_link,-0.00548187035206,0.0081878066863,-0.415463296766,-0.909556660271,1.0,0.0,0.0,0.0,1.0,0.0,0.0,0.0,1.0,-0.000568938965444,-0.00104341492988,-0.00849989894778,1.21846967915e-07,0.0,0.0,0.0,1.21846967915e-07,0.0,0.0,0.0,1.21846967915e-07,0.228295132518,0.0501887351275,9.83351230621,9e-08,0.0,0.0,0.0,9e-08,0.0,0.0,0.0,9e-08
1560461067121355279,4739,1560461067117077760,base_link,-0.00547899004301,0.00818830833258,-0.415439146622,-0.909567660599,1.0,0.0,0.0,0.0,1.0,0.0,0.0,0.0,1.0,-0.000700205506291,-0.000841595465317,-0.00998608395457,1.21846967915e-07,0.0,0.0,0.0,1.21846967915e-07,0.0,0.0,0.0,1.21846967915e-07,0.1785569489,0.0303395837545,9.85557937622,9e-08,0.0,0.0,0.0,9e-08,0.0,0.0,0.0,9e-08
1560461067141062892,4740,1560461067137077760,base_link,-0.00548534738474,0.00818905668609,-0.415416513764,-0.909577902283,1.0,0.0,0.0,0.0,1.0,0.0,0.0,0.0,1.0,-0.000360985286534,-0.00115649565123,-0.00870114658028,1.21846967915e-07,0.0,0.0,0.0,1.21846967915e-07,0.0,0.0,0.0,1.21846967915e-07,0.209102883935,0.0269380137324,9.82122707367,9e-08,0.0,0.0,0.0,9e-08,0.0,0.0,0.0,9e-08
1560461067160109563,4741,1560461067157077760,base_link,-0.0054955597637,0.00818891608684,-0.415404902307,-0.909583191712,1.0,0.0,0.0,0.0,1.0,0.0,0.0,0.0,1.0,0.00146471930202,2.31595477089e-05,-0.0078740613535,1.21846967915e-07,0.0,0.0,0.0,1.21846967915e-07,0.0,0.0,0.0,1.21846967915e-07,0.21827340126,0.066298596561,9.88056659698,9e-08,0.0,0.0,0.0,9e-08,0.0,0.0,0.0,9e-08
1560461067182065927,4742,1560461067177075712,base_link,-0.00549751531161,0.00819230396906,-0.415387558879,-0.909591009953,1.0,0.0,0.0,0.0,1.0,0.0,0.0,0.0,1.0,0.000178322894499,-0.00115003983956,-0.00869352556765,1.21846967915e-07,0.0,0.0,0.0,1.21846967915e-07,0.0,0.0,0.0,1.21846967915e-07,0.191031426191,0.0327093228698,9.86262130737,9e-08,0.0,0.0,0.0,9e-08,0.0,0.0,0.0,9e-08
1560461067200219452,4743,1560461067197075712,base_link,-0.00548777140476,0.00819306796301,-0.415372786409,-0.909597858816,1.0,0.0,0.0,0.0,1.0,0.0,0.0,0.0,1.0,-0.0023809610866,0.000123800884467,-0.00855193007737,1.21846967915e-07,0.0,0.0,0.0,1.21846967915e-07,0.0,0.0,0.0,1.21846967915e-07,0.183405503631,0.0653101801872,9.78724765778,9e-08,0.0,0.0,0.0,9e-08,0.0,0.0,0.0,9e-08
1560461067221743858,4744,1560461067217075712,base_link,-0.00549603638529,0.0081933258655,-0.415357571396,-0.909604728752,1.0,0.0,0.0,0.0,1.0,0.0,0.0,0.0,1.0,-0.000571671582293,-0.000940041732974,-0.00845929887146,1.21846967915e-07,0.0,0.0,0.0,1.21846967915e-07,0.0,0.0,0.0,1.21846967915e-07,0.188672676682,0.0182364657521,9.78932666779,9e-08,0.0,0.0,0.0,9e-08,0.0,0.0,0.0,9e-08
1560461067241822838,4745,1560461067237075712,base_link,-0.00549749991814,0.00819246555942,-0.41534602316,-0.909610039255,1.0,0.0,0.0,0.0,1.0,0.0,0.0,0.0,1.0,-0.000568198855035,0.00128804030828,-0.00836692843586,1.21846967915e-07,0.0,0.0,0.0,1.21846967915e-07,0.0,0.0,0.0,1.21846967915e-07,0.193107277155,0.0466028153896,9.82852649689,9e-08,0.0,0.0,0.0,9e-08,0.0,0.0,0.0,9e-08
1560461067259724942,4746,1560461067257075712,base_link,-0.00548709491491,0.00819446885181,-0.415325329057,-0.909619522296,1.0,0.0,0.0,0.0,1.0,0.0,0.0,0.0,1.0,-0.00206493097357,0.000120951095596,-0.00886693783104,1.21846967915e-07,0.0,0.0,0.0,1.21846967915e-07,0.0,0.0,0.0,1.21846967915e-07,0.188240692019,0.02187859267,9.82014465332,9e-08,0.0,0.0,0.0,9e-08,0.0,0.0,0.0,9e-08
1560461067280412532,4747,1560461067277073664,base_link,-0.00548582878078,0.00820049889692,-0.415309081447,-0.909626919068,1.0,0.0,0.0,0.0,1.0,0.0,0.0,0.0,1.0,-0.000260989821982,-0.0019015474245,-0.00908952392638,1.21846967915e-07,0.0,0.0,0.0,1.21846967915e-07,0.0,0.0,0.0,1.21846967915e-07,0.165433064103,0.0364539399743,9.82568454742,9e-08,0.0,0.0,0.0,9e-08,0.0,0.0,0.0,9e-08
1560461067299482106,4748,1560461067297073664,base_link,-0.00548353350621,0.00821350342227,-0.415297975753,-0.909631871322,1.0,0.0,0.0,0.0,1.0,0.0,0.0,0.0,1.0,-0.00130614754744,-0.000618121004663,-0.00769313750789,1.21846967915e-07,0.0,0.0,0.0,1.21846967915e-07,0.0,0.0,0.0,1.21846967915e-07,0.190061300993,0.0671204403043,9.7760925293,9e-08,0.0,0.0,0.0,9e-08,0.0,0.0,0.0,9e-08
1560461067320714965,4749,1560461067317073664,base_link,-0.00546755326518,0.00820638192196,-0.415274478885,-0.909642808429,1.0,0.0,0.0,0.0,1.0,0.0,0.0,0.0,1.0,-0.000583405722864,0.000756321300287,-0.00961764715612,1.21846967915e-07,0.0,0.0,0.0,1.21846967915e-07,0.0,0.0,0.0,1.21846967915e-07,0.167128026485,0.0225260481238,9.80725097656,9e-08,0.0,0.0,0.0,9e-08,0.0,0.0,0.0,9e-08
1560461067340437682,4750,1560461067338073664,base_link,-0.00548148658524,0.00822404688448,-0.415259348166,-0.909649341191,1.0,0.0,0.0,0.0,1.0,0.0,0.0,0.0,1.0,0.00136287591886,-0.00371237192303,-0.00760265532881,1.21846967915e-07,0.0,0.0,0.0,1.21846967915e-07,0.0,0.0,0.0,1.21846967915e-07,0.198475077748,0.0138122588396,9.86815643311,9e-08,0.0,0.0,0.0,9e-08,0.0,0.0,0.0,9e-08
1560461067362737273,4751,1560461067359071616,base_link,-0.0054987680279,0.00823068246126,-0.415243163776,-0.909656674743,1.0,0.0,0.0,0.0,1.0,0.0,0.0,0.0,1.0,-0.0017473846674,0.000550827244297,-0.0082113519311,1.21846967915e-07,0.0,0.0,0.0,1.21846967915e-07,0.0,0.0,0.0,1.21846967915e-07,0.204861611128,0.0698601230979,9.81073760986,9e-08,0.0,0.0,0.0,9e-08,0.0,0.0,0.0,9e-08
1560461067381701439,4752,1560461067379071616,base_link,-0.00547799564081,0.00822012525194,-0.415227632663,-0.909664029368,1.0,0.0,0.0,0.0,1.0,0.0,0.0,0.0,1.0,-0.00216760276817,0.00106709683314,-0.00841885618865,1.21846967915e-07,0.0,0.0,0.0,1.21846967915e-07,0.0,0.0,0.0,1.21846967915e-07,0.171356782317,0.0177420526743,9.78358459473,9e-08,0.0,0.0,0.0,9e-08,0.0,0.0,0.0,9e-08
1560461067401836448,4753,1560461067399071616,base_link,-0.00549725568044,0.00822345328893,-0.415216000132,-0.909669171283,1.0,0.0,0.0,0.0,1.0,0.0,0.0,0.0,1.0,0.00314810476266,-0.00253943214193,-0.00879120174795,1.21846967915e-07,0.0,0.0,0.0,1.21846967915e-07,0.0,0.0,0.0,1.21846967915e-07,0.197121322155,0.0550005212426,9.83122158051,9e-08,0.0,0.0,0.0,9e-08,0.0,0.0,0.0,9e-08
1560461067421642247,4754,1560461067419071616,base_link,-0.00550097472823,0.00822968484865,-0.415196338628,-0.909677958901,1.0,0.0,0.0,0.0,1.0,0.0,0.0,0.0,1.0,-0.000483344425447,-0.000412348104874,-0.00981439463794,1.21846967915e-07,0.0,0.0,0.0,1.21846967915e-07,0.0,0.0,0.0,1.21846967915e-07,0.228376999497,0.0471807941794,9.81765651703,9e-08,0.0,0.0,0.0,9e-08,0.0,0.0,0.0,9e-08
1560461067439821121,4755,1560461067435071616,base_link,-0.00548479626531,0.00822607273203,-0.415183125591,-0.909684259855,1.0,0.0,0.0,0.0,1.0,0.0,0.0,0.0,1.0,-0.00121551076882,0.00150383880828,-0.00885668583214,1.21846967915e-07,0.0,0.0,0.0,1.21846967915e-07,0.0,0.0,0.0,1.21846967915e-07,0.190218240023,-0.00915133953094,9.84366226196,9e-08,0.0,0.0,0.0,9e-08,0.0,0.0,0.0,9e-08
1560461067461816865,4756,1560461067459069824,base_link,-0.00549517229257,0.00822224132008,-0.415161946799,-0.90969389041,1.0,0.0,0.0,0.0,1.0,0.0,0.0,0.0,1.0,0.00113642541692,-0.000306795409415,-0.0084601547569,1.21846967915e-07,0.0,0.0,0.0,1.21846967915e-07,0.0,0.0,0.0,1.21846967915e-07,0.199457198381,0.0322250574827,9.81505489349,9e-08,0.0,0.0,0.0,9e-08,0.0,0.0,0.0,9e-08
1560461067481936107,4757,1560461067479069824,base_link,-0.00549407054761,0.00822039015147,-0.415149134157,-0.909699622381,1.0,0.0,0.0,0.0,1.0,0.0,0.0,0.0,1.0,-0.00130223028827,0.00182521727402,-0.00789070315659,1.21846967915e-07,0.0,0.0,0.0,1.21846967915e-07,0.0,0.0,0.0,1.21846967915e-07,0.178445845842,0.0459805727005,9.84558010101,9e-08,0.0,0.0,0.0,9e-08,0.0,0.0,0.0,9e-08
1560461067501475852,4758,1560461067499069824,base_link,-0.00546401630495,0.00821724453131,-0.415127786778,-0.909709590111,1.0,0.0,0.0,0.0,1.0,0.0,0.0,0.0,1.0,-0.00356025574729,0.000119750620797,-0.00901086535305,1.21846967915e-07,0.0,0.0,0.0,1.21846967915e-07,0.0,0.0,0.0,1.21846967915e-07,0.198019474745,0.0274261534214,9.83214378357,9e-08,0.0,0.0,0.0,9e-08,0.0,0.0,0.0,9e-08
1560461067521957211,4759,1560461067519069824,base_link,-0.00547284524653,0.00822794538565,-0.415109284312,-0.90971789304,1.0,0.0,0.0,0.0,1.0,0.0,0.0,0.0,1.0,0.00165474391542,-0.00381748052314,-0.00915489532053,1.21846967915e-07,0.0,0.0,0.0,1.21846967915e-07,0.0,0.0,0.0,1.21846967915e-07,0.162357375026,-0.00251044332981,9.82141399384,9e-08,0.0,0.0,0.0,9e-08,0.0,0.0,0.0,9e-08
1560461067542325879,4760,1560461067539069824,base_link,-0.00549415698158,0.00823316114047,-0.415097167093,-0.909723266763,1.0,0.0,0.0,0.0,1.0,0.0,0.0,0.0,1.0,0.00187975773588,0.000869548530318,-0.0082187121734,1.21846967915e-07,0.0,0.0,0.0,1.21846967915e-07,0.0,0.0,0.0,1.21846967915e-07,0.220919638872,0.0435916781425,9.81723308563,9e-08,0.0,0.0,0.0,9e-08,0.0,0.0,0.0,9e-08
1560461067562650792,4761,1560461067559067776,base_link,-0.00546706791788,0.008222103355,-0.415076135816,-0.909733171273,1.0,0.0,0.0,0.0,1.0,0.0,0.0,0.0,1.0,-0.0011163437739,0.00267279148102,-0.00946682225913,1.21846967915e-07,0.0,0.0,0.0,1.21846967915e-07,0.0,0.0,0.0,1.21846967915e-07,0.18130351603,0.0267424061894,9.87982559204,9e-08,0.0,0.0,0.0,9e-08,0.0,0.0,0.0,9e-08
1560461067581677738,4762,1560461067579067776,base_link,-0.00546951235277,0.0082162423912,-0.415065093341,-0.909738228895,1.0,0.0,0.0,0.0,1.0,0.0,0.0,0.0,1.0,0.00220234971493,-0.00019676919328,-0.00746463285759,1.21846967915e-07,0.0,0.0,0.0,1.21846967915e-07,0.0,0.0,0.0,1.21846967915e-07,0.186322152615,0.0410261079669,9.81637477875,9e-08,0.0,0.0,0.0,9e-08,0.0,0.0,0.0,9e-08
1560461067602206120,4763,1560461067599067776,base_link,-0.00547871263114,0.00821848103094,-0.415053355444,-0.909743560471,1.0,0.0,0.0,0.0,1.0,0.0,0.0,0.0,1.0,-0.000470263708849,0.00151261780411,-0.00925797596574,1.21846967915e-07,0.0,0.0,0.0,1.21846967915e-07,0.0,0.0,0.0,1.21846967915e-07,0.210699915886,0.0596525669098,9.82512187958,9e-08,0.0,0.0,0.0,9e-08,0.0,0.0,0.0,9e-08
1560461067621823679,4764,1560461067619067776,base_link,-0.00546864175693,0.00821295230284,-0.415032324167,-0.909753212099,1.0,0.0,0.0,0.0,1.0,0.0,0.0,0.0,1.0,-0.000578207662329,0.00182343809865,-0.00892374571413,1.21846967915e-07,0.0,0.0,0.0,1.21846967915e-07,0.0,0.0,0.0,1.21846967915e-07,0.18382242322,-0.0223987549543,9.84649753571,9e-08,0.0,0.0,0.0,9e-08,0.0,0.0,0.0,9e-08
1560461067642786605,4765,1560461067639067776,base_link,-0.00548300609438,0.00822504696664,-0.415019385084,-0.909758986217,1.0,0.0,0.0,0.0,1.0,0.0,0.0,0.0,1.0,0.000389768218156,-0.00264390604571,-0.0081715490669,1.21846967915e-07,0.0,0.0,0.0,1.21846967915e-07,0.0,0.0,0.0,1.21846967915e-07,0.200428813696,0.0149621739984,9.80264663696,9e-08,0.0,0.0,0.0,9e-08,0.0,0.0,0.0,9e-08
1560461067661833753,4766,1560461067659067776,base_link,-0.00549263903649,0.00822783680813,-0.41499923889,-0.909768005643,1.0,0.0,0.0,0.0,1.0,0.0,0.0,0.0,1.0,-0.00250338157639,0.0010751724476,-0.00974501110613,1.21846967915e-07,0.0,0.0,0.0,1.21846967915e-07,0.0,0.0,0.0,1.21846967915e-07,0.192757278681,0.0307573080063,9.83699131012,9e-08,0.0,0.0,0.0,9e-08,0.0,0.0,0.0,9e-08
1560461067680056457,4767,1560461067675065984,base_link,-0.00547902025374,0.00823706046482,-0.414985077549,-0.909774411964,1.0,0.0,0.0,0.0,1.0,0.0,0.0,0.0,1.0,-0.00270354398526,-0.000625310232863,-0.0087699694559,1.21846967915e-07,0.0,0.0,0.0,1.21846967915e-07,0.0,0.0,0.0,1.21846967915e-07,0.202063381672,-0.00311891362071,9.81641578674,9e-08,0.0,0.0,0.0,9e-08,0.0,0.0,0.0,9e-08
1560461067701973916,4768,1560461067700065984,base_link,-0.00547068925413,0.00823733483093,-0.414960611304,-0.909785644099,1.0,0.0,0.0,0.0,1.0,0.0,0.0,0.0,1.0,-0.000386966828955,0.000111220113467,-0.0106119997799,1.21846967915e-07,0.0,0.0,0.0,1.21846967915e-07,0.0,0.0,0.0,1.21846967915e-07,0.204489216208,0.00903861224651,9.85023975372,9e-08,0.0,0.0,0.0,9e-08,0.0,0.0,0.0,9e-08
1560461067722650695,4769,1560461067720065984,base_link,-0.00547983462635,0.00825031523709,-0.414945859907,-0.909792303301,1.0,0.0,0.0,0.0,1.0,0.0,0.0,0.0,1.0,-0.00046919909073,1.44718796946e-05,-0.00857820175588,1.21846967915e-07,0.0,0.0,0.0,1.21846967915e-07,0.0,0.0,0.0,1.21846967915e-07,0.214435428381,0.0132421702147,9.84484100342,9e-08,0.0,0.0,0.0,9e-08,0.0,0.0,0.0,9e-08
1560461067739563266,4770,1560461067736065984,base_link,-0.00548140146837,0.00824865356466,-0.414932667943,-0.909798330301,1.0,0.0,0.0,0.0,1.0,0.0,0.0,0.0,1.0,-4.87250799779e-05,0.000649403897114,-0.00912140868604,1.21846967915e-07,0.0,0.0,0.0,1.21846967915e-07,0.0,0.0,0.0,1.21846967915e-07,0.173728838563,0.0505385547876,9.78962802887,9e-08,0.0,0.0,0.0,9e-08,0.0,0.0,0.0,9e-08
1560461067763673712,4771,1560461067760063424,base_link,-0.00547402214788,0.008251517904,-0.414909803278,-0.909808635205,1.0,0.0,0.0,0.0,1.0,0.0,0.0,0.0,1.0,-0.000676887691952,0.000759570742957,-0.00847061537206,1.21846967915e-07,0.0,0.0,0.0,1.21846967915e-07,0.0,0.0,0.0,1.21846967915e-07,0.181811109185,0.0409765541554,9.78619384766,9e-08,0.0,0.0,0.0,9e-08,0.0,0.0,0.0,9e-08
1560461067780048155,4772,1560461067776063424,base_link,-0.00547407219727,0.00824958441732,-0.414898697583,-0.909813756047,1.0,0.0,0.0,0.0,1.0,0.0,0.0,0.0,1.0,-0.000445773999672,-0.000196103821509,-0.00730250123888,1.21846967915e-07,0.0,0.0,0.0,1.21846967915e-07,0.0,0.0,0.0,1.21846967915e-07,0.205574244261,0.0164300054312,9.78660297394,9e-08,0.0,0.0,0.0,9e-08,0.0,0.0,0.0,9e-08
1560461067802820306,4773,1560461067800063424,base_link,-0.00547796864048,0.00825408441658,-0.414877497719,-0.909823407675,1.0,0.0,0.0,0.0,1.0,0.0,0.0,0.0,1.0,-0.00144162739161,-0.00128276867326,-0.00971572473645,1.21846967915e-07,0.0,0.0,0.0,1.21846967915e-07,0.0,0.0,0.0,1.21846967915e-07,0.176760405302,0.0558889582753,9.80708789825,9e-08,0.0,0.0,0.0,9e-08,0.0,0.0,0.0,9e-08
1560461067818752143,4774,1560461067816063424,base_link,-0.00546725066398,0.00824608128981,-0.414860807567,-0.909831162695,1.0,0.0,0.0,0.0,1.0,0.0,0.0,0.0,1.0,0.000285551825073,0.00150155322626,-0.00837137922645,1.21846967915e-07,0.0,0.0,0.0,1.21846967915e-07,0.0,0.0,0.0,1.21846967915e-07,0.193081617355,0.0248711407185,9.79835891724,9e-08,0.0,0.0,0.0,9e-08,0.0,0.0,0.0,9e-08
1560461067840599209,4775,1560461067836063424,base_link,-0.00547641776817,0.0082425170823,-0.414852230683,-0.909835103426,1.0,0.0,0.0,0.0,1.0,0.0,0.0,0.0,1.0,0.0023121512495,-0.00147222634405,-0.00774389924482,1.21846967915e-07,0.0,0.0,0.0,1.21846967915e-07,0.0,0.0,0.0,1.21846967915e-07,0.197187632322,0.0376207455993,9.82256793976,9e-08,0.0,0.0,0.0,9e-08,0.0,0.0,0.0,9e-08
1560461067859797747,4776,1560461067856063424,base_link,-0.00549844492951,0.00825183400536,-0.41484692018,-0.909837210768,1.0,0.0,0.0,0.0,1.0,0.0,0.0,0.0,1.0,0.00166225014254,-9.70296096057e-05,-0.00848583038896,1.21846967915e-07,0.0,0.0,0.0,1.21846967915e-07,0.0,0.0,0.0,1.21846967915e-07,0.226360708475,0.0415914580226,9.81191825867,9e-08,0.0,0.0,0.0,9e-08,0.0,0.0,0.0,9e-08
1560461067883495119,4777,1560461067880061120,base_link,-0.00546986294541,0.0082395216926,-0.414824308396,-0.909847852848,1.0,0.0,0.0,0.0,1.0,0.0,0.0,0.0,1.0,-0.00271794619039,0.00224329973571,-0.00969505123794,1.21846967915e-07,0.0,0.0,0.0,1.21846967915e-07,0.0,0.0,0.0,1.21846967915e-07,0.192315489054,0.0196437463164,9.8280248642,9e-08,0.0,0.0,0.0,9e-08,0.0,0.0,0.0,9e-08
1560461067899379532,4778,1560461067896061120,base_link,-0.00546624309088,0.00823764270049,-0.414815731512,-0.909851793578,1.0,0.0,0.0,0.0,1.0,0.0,0.0,0.0,1.0,0.000831213197671,-0.000509262899868,-0.00706680351868,1.21846967915e-07,0.0,0.0,0.0,1.21846967915e-07,0.0,0.0,0.0,1.21846967915e-07,0.185692965984,0.0306491404772,9.82864284515,9e-08,0.0,0.0,0.0,9e-08,0.0,0.0,0.0,9e-08
1560461067918920764,4779,1560461067916061120,base_link,-0.0054848568514,0.00824310137591,-0.414809662366,-0.909854322389,1.0,0.0,0.0,0.0,1.0,0.0,0.0,0.0,1.0,0.00252148555592,2.04702955671e-05,-0.00719626108184,1.21846967915e-07,0.0,0.0,0.0,1.21846967915e-07,0.0,0.0,0.0,1.21846967915e-07,0.196612179279,0.0470789521933,9.86186408997,9e-08,0.0,0.0,0.0,9e-08,0.0,0.0,0.0,9e-08
1560461067938887725,4780,1560461067936061120,base_link,-0.0054698724943,0.00823540150889,-0.414793583343,-0.909861887748,1.0,0.0,0.0,0.0,1.0,0.0,0.0,0.0,1.0,-0.00152904773131,0.00225001154467,-0.00821355730295,1.21846967915e-07,0.0,0.0,0.0,1.21846967915e-07,0.0,0.0,0.0,1.21846967915e-07,0.208267867565,0.0340126082301,9.83254241943,9e-08,0.0,0.0,0.0,9e-08,0.0,0.0,0.0,9e-08
1560461067963697475,4781,1560461067960057536,base_link,-0.00547303021522,0.00823505313884,-0.414779105901,-0.909868441583,1.0,0.0,0.0,0.0,1.0,0.0,0.0,0.0,1.0,0.00295005179942,-0.00189635797869,-0.0077211833559,1.21846967915e-07,0.0,0.0,0.0,1.21846967915e-07,0.0,0.0,0.0,1.21846967915e-07,0.162516027689,0.0272266119719,9.79873466492,9e-08,0.0,0.0,0.0,9e-08,0.0,0.0,0.0,9e-08
1560461067979825465,4782,1560461067976057536,base_link,-0.00548821995588,0.00823860952614,-0.414770613311,-0.909872213726,1.0,0.0,0.0,0.0,1.0,0.0,0.0,0.0,1.0,0.00209238682874,-0.000728777144104,-0.00824176054448,1.21846967915e-07,0.0,0.0,0.0,1.21846967915e-07,0.0,0.0,0.0,1.21846967915e-07,0.195540204644,0.0263206660748,9.80673313141,9e-08,0.0,0.0,0.0,9e-08,0.0,0.0,0.0,9e-08
1560461068002263500,4783,1560461068000057536,base_link,-0.00547142633007,0.00823311537163,-0.414747432544,-0.909882919025,1.0,0.0,0.0,0.0,1.0,0.0,0.0,0.0,1.0,-0.000810728408396,0.00203104084358,-0.0104456851259,1.21846967915e-07,0.0,0.0,0.0,1.21846967915e-07,0.0,0.0,0.0,1.21846967915e-07,0.181608021259,0.00493667274714,9.83434963226,9e-08,0.0,0.0,0.0,9e-08,0.0,0.0,0.0,9e-08
1560461068019440511,4784,1560461068016057536,base_link,-0.00546027453737,0.00823276370886,-0.414731859284,-0.909890062916,1.0,0.0,0.0,0.0,1.0,0.0,0.0,0.0,1.0,-0.00122708885465,-0.00041877332842,-0.00979223195463,1.21846967915e-07,0.0,0.0,0.0,1.21846967915e-07,0.0,0.0,0.0,1.21846967915e-07,0.200596630573,0.0200399532914,9.79008769989,9e-08,0.0,0.0,0.0,9e-08,0.0,0.0,0.0,9e-08
1560461068042421875,4785,1560461068036057536,base_link,-0.00548383314396,0.00824276321331,-0.414727117763,-0.909891938451,1.0,0.0,0.0,0.0,1.0,0.0,0.0,0.0,1.0,0.00201418809593,-0.00157373817638,-0.00652437657118,1.21846967915e-07,0.0,0.0,0.0,1.21846967915e-07,0.0,0.0,0.0,1.21846967915e-07,0.229853257537,0.0435891970992,9.84229660034,9e-08,0.0,0.0,0.0,9e-08,0.0,0.0,0.0,9e-08
1560461068059415207,4786,1560461068056057536,base_link,-0.0054839609016,0.00825017710738,-0.414719088788,-0.909895668447,1.0,0.0,0.0,0.0,1.0,0.0,0.0,0.0,1.0,-0.0023840025533,0.000100721837953,-0.00826792698354,1.21846967915e-07,0.0,0.0,0.0,1.21846967915e-07,0.0,0.0,0.0,1.21846967915e-07,0.191531091928,0.019116692245,9.82326889038,9e-08,0.0,0.0,0.0,9e-08,0.0,0.0,0.0,9e-08
1560461068083237939,4787,1560461068080055488,base_link,-0.00547910010227,0.00823804219005,-0.414698816154,-0.909904982901,1.0,0.0,0.0,0.0,1.0,0.0,0.0,0.0,1.0,0.000174924643943,-0.000199743953999,-0.00841574091464,1.21846967915e-07,0.0,0.0,0.0,1.21846967915e-07,0.0,0.0,0.0,1.21846967915e-07,0.181419819593,0.0388203561306,9.84750652313,9e-08,0.0,0.0,0.0,9e-08,0.0,0.0,0.0,9e-08
1560461068099847660,4788,1560461068096055488,base_link,-0.00548890344277,0.00824050094829,-0.414697994291,-0.909905299002,1.0,0.0,0.0,0.0,1.0,0.0,0.0,0.0,1.0,0.00134539604187,-0.000627578818239,-0.00820861570537,1.21846967915e-07,0.0,0.0,0.0,1.21846967915e-07,0.0,0.0,0.0,1.21846967915e-07,0.207420945168,0.0248016789556,9.79088115692,9e-08,0.0,0.0,0.0,9e-08,0.0,0.0,0.0,9e-08
1560461068120884912,4789,1560461068116055488,base_link,-0.00548818702866,0.00823844884128,-0.414684401932,-0.909911473515,1.0,0.0,0.0,0.0,1.0,0.0,0.0,0.0,1.0,-0.000796879641712,0.000433274544775,-0.00946024525911,1.21846967915e-07,0.0,0.0,0.0,1.21846967915e-07,0.0,0.0,0.0,1.21846967915e-07,0.174986973405,0.00733095407486,9.82919311523,9e-08,0.0,0.0,0.0,9e-08,0.0,0.0,0.0,9e-08
1560461068139384456,4790,1560461068136055488,base_link,-0.0054841623339,0.00824190455359,-0.414672685108,-0.909916868312,1.0,0.0,0.0,0.0,1.0,0.0,0.0,0.0,1.0,-0.000973575050011,-0.00125677755568,-0.00753078563139,1.21846967915e-07,0.0,0.0,0.0,1.21846967915e-07,0.0,0.0,0.0,1.21846967915e-07,0.194033831358,0.0183299481869,9.83107852936,9e-08,0.0,0.0,0.0,9e-08,0.0,0.0,0.0,9e-08
