%time,field.header.seq,field.header.stamp,field.header.frame_id,field.orientation.x,field.orientation.y,field.orientation.z,field.orientation.w,field.orientation_covariance0,field.orientation_covariance1,field.orientation_covariance2,field.orientation_covariance3,field.orientation_covariance4,field.orientation_covariance5,field.orientation_covariance6,field.orientation_covariance7,field.orientation_covariance8,field.angular_velocity.x,field.angular_velocity.y,field.angular_velocity.z,field.angular_velocity_covariance0,field.angular_velocity_covariance1,field.angular_velocity_covariance2,field.angular_velocity_covariance3,field.angular_velocity_covariance4,field.angular_velocity_covariance5,field.angular_velocity_covariance6,field.angular_velocity_covariance7,field.angular_velocity_covariance8,field.linear_acceleration.x,field.linear_acceleration.y,field.linear_acceleration.z,field.linear_acceleration_covariance0,field.linear_acceleration_covariance1,field.linear_acceleration_covariance2,field.linear_acceleration_covariance3,field.linear_acceleration_covariance4,field.linear_acceleration_covariance5,field.linear_acceleration_covariance6,field.linear_acceleration_covariance7,field.linear_acceleration_covariance8
1560461216773605207,12218,1560461216694537024,base_link,0.0101907872588,0.000943227371883,0.38547267411,0.92266249677,1.0,0.0,0.0,0.0,1.0,0.0,0.0,0.0,1.0,-0.000279802916339,0.00108784716576,-0.000542886089534,1.21846967915e-07,0.0,0.0,0.0,1.21846967915e-07,0.0,0.0,0.0,1.21846967915e-07,0.0402009785175,0.184018433094,9.76899719238,9e-08,0.0,0.0,0.0,9e-08,0.0,0.0,0.0,9e-08
1560461216773631313,12219,1560461216714537024,base_link,0.0101905959516,0.000946490130648,0.385478680036,0.922660031179,1.0,0.0,0.0,0.0,1.0,0.0,0.0,0.0,1.0,0.00023726982181,0.000655572628602,-0.00161486130673,1.21846967915e-07,0.0,0.0,0.0,1.21846967915e-07,0.0,0.0,0.0,1.21846967915e-07,0.0613723583519,0.185793429613,9.77163887024,9e-08,0.0,0.0,0.0,9e-08,0.0,0.0,0.0,9e-08
1560461216773675855,12220,1560461216734537024,base_link,0.0101925574264,0.000935688354356,0.38548331619,0.922658092424,1.0,0.0,0.0,0.0,1.0,0.0,0.0,0.0,1.0,0.0010897848988,-0.00051458273083,-0.00151233782526,1.21846967915e-07,0.0,0.0,0.0,1.21846967915e-07,0.0,0.0,0.0,1.21846967915e-07,0.0616371892393,0.202826052904,9.81443214417,9e-08,0.0,0.0,0.0,9e-08,0.0,0.0,0.0,9e-08
1560461216773744130,12221,1560461216754537024,base_link,0.0102033651296,0.00093229981359,0.385483547997,0.922657776323,1.0,0.0,0.0,0.0,1.0,0.0,0.0,0.0,1.0,-8.19038104964e-05,-8.51920922287e-05,-0.0018174094148,1.21846967915e-07,0.0,0.0,0.0,1.21846967915e-07,0.0,0.0,0.0,1.21846967915e-07,0.066661067307,0.207792073488,9.80590343475,9e-08,0.0,0.0,0.0,9e-08,0.0,0.0,0.0,9e-08
1560461216776697355,12222,1560461216774535232,base_link,0.010204081626,0.000932971528988,0.385491471605,0.922654573163,1.0,0.0,0.0,0.0,1.0,0.0,0.0,0.0,1.0,-0.00093383732019,0.000445850775577,-0.00201539625414,1.21846967915e-07,0.0,0.0,0.0,1.21846967915e-07,0.0,0.0,0.0,1.21846967915e-07,0.0356697440147,0.2357018888,9.76612091064,9e-08,0.0,0.0,0.0,9e-08,0.0,0.0,0.0,9e-08
1560461216797337569,12223,1560461216794535232,base_link,0.0101909884441,0.000935533267124,0.385494021489,0.922653540565,1.0,0.0,0.0,0.0,1.0,0.0,0.0,0.0,1.0,-0.00222044135444,0.000548881478608,-0.00242314534262,1.21846967915e-07,0.0,0.0,0.0,1.21846967915e-07,0.0,0.0,0.0,1.21846967915e-07,0.0362426266074,0.200117975473,9.76853179932,9e-08,0.0,0.0,0.0,9e-08,0.0,0.0,0.0,9e-08
1560461216816570387,12224,1560461216814535232,base_link,0.0101855715863,0.000941754866363,0.385493136405,0.922654088474,1.0,0.0,0.0,0.0,1.0,0.0,0.0,0.0,1.0,0.0018404815346,0.000234922335949,-0.00109301158227,1.21846967915e-07,0.0,0.0,0.0,1.21846967915e-07,0.0,0.0,0.0,1.21846967915e-07,0.0480208769441,0.18204587698,9.76788139343,9e-08,0.0,0.0,0.0,9e-08,0.0,0.0,0.0,9e-08
1560461216837555196,12225,1560461216834535232,base_link,0.0102048824161,0.000938174030601,0.385504726789,0.922649072999,1.0,0.0,0.0,0.0,1.0,0.0,0.0,0.0,1.0,0.0015170777915,-0.000935569638386,-0.00108544062823,1.21846967915e-07,0.0,0.0,0.0,1.21846967915e-07,0.0,0.0,0.0,1.21846967915e-07,0.0502051599324,0.19155600667,9.7836856842,9e-08,0.0,0.0,0.0,9e-08,0.0,0.0,0.0,9e-08
1560461216857023033,12226,1560461216854535232,base_link,0.0101954859738,0.000937914893337,0.385508330344,0.922647576786,1.0,0.0,0.0,0.0,1.0,0.0,0.0,0.0,1.0,-0.00147195428144,0.00140476995148,-0.00179651577491,1.21846967915e-07,0.0,0.0,0.0,1.21846967915e-07,0.0,0.0,0.0,1.21846967915e-07,0.0460103079677,0.177253976464,9.79479217529,9e-08,0.0,0.0,0.0,9e-08,0.0,0.0,0.0,9e-08
1560461216877764577,12227,1560461216874533696,base_link,0.0101901418851,0.000940240213995,0.385511596725,0.922646333454,1.0,0.0,0.0,0.0,1.0,0.0,0.0,0.0,1.0,0.00150066684,-0.00105123466346,-0.00288655841723,1.21846967915e-07,0.0,0.0,0.0,1.21846967915e-07,0.0,0.0,0.0,1.21846967915e-07,0.0518608503044,0.181246086955,9.79874324799,9e-08,0.0,0.0,0.0,9e-08,0.0,0.0,0.0,9e-08
1560461216896999623,12228,1560461216894533696,base_link,0.0101944849862,0.000930223093484,0.385515411015,0.9226447108,1.0,0.0,0.0,0.0,1.0,0.0,0.0,0.0,1.0,0.000565199879929,-0.00242572161369,-0.000952898408286,1.21846967915e-07,0.0,0.0,0.0,1.21846967915e-07,0.0,0.0,0.0,1.21846967915e-07,0.0674885362387,0.189262226224,9.75716972351,9e-08,0.0,0.0,0.0,9e-08,0.0,0.0,0.0,9e-08
1560461216918078246,12229,1560461216914533696,base_link,0.0101945333892,0.000935989638468,0.385516422539,0.922644289332,1.0,0.0,0.0,0.0,1.0,0.0,0.0,0.0,1.0,0.000872566539329,0.00108350347728,-0.00203748000786,1.21846967915e-07,0.0,0.0,0.0,1.21846967915e-07,0.0,0.0,0.0,1.21846967915e-07,0.0307517014444,0.221694380045,9.79190635681,9e-08,0.0,0.0,0.0,9e-08,0.0,0.0,0.0,9e-08
1560461216939020031,12230,1560461216935533696,base_link,0.0102018778068,0.000935640280607,0.385522491685,0.922641591933,1.0,0.0,0.0,0.0,1.0,0.0,0.0,0.0,1.0,0.000997682916932,-0.000511383463163,-0.000437095644884,1.21846967915e-07,0.0,0.0,0.0,1.21846967915e-07,0.0,0.0,0.0,1.21846967915e-07,0.0672433897853,0.21218764782,9.80704975128,9e-08,0.0,0.0,0.0,9e-08,0.0,0.0,0.0,9e-08
1560461216958530312,12231,1560461216955533696,base_link,0.0102084586421,0.000922717661726,0.385534629978,0.922636450018,1.0,0.0,0.0,0.0,1.0,0.0,0.0,0.0,1.0,0.000256193219684,-0.000609518610872,-0.000314673990943,1.21846967915e-07,0.0,0.0,0.0,1.21846967915e-07,0.0,0.0,0.0,1.21846967915e-07,0.0674577057362,0.204921886325,9.78820037842,9e-08,0.0,0.0,0.0,9e-08,0.0,0.0,0.0,9e-08
1560461216976530550,12232,1560461216971530624,base_link,0.0102094579834,0.00092706570184,0.38553907647,0.922634700924,1.0,0.0,0.0,0.0,1.0,0.0,0.0,0.0,1.0,-0.000826966599561,0.001295610331,-0.00158722000197,1.21846967915e-07,0.0,0.0,0.0,1.21846967915e-07,0.0,0.0,0.0,1.21846967915e-07,0.06396368891,0.176727205515,9.84875011444,9e-08,0.0,0.0,0.0,9e-08,0.0,0.0,0.0,9e-08
1560461216998223090,12233,1560461216995530624,base_link,0.010193314094,0.00093080392974,0.385538528561,0.922634995951,1.0,0.0,0.0,0.0,1.0,0.0,0.0,0.0,1.0,8.2285150711e-06,0.00118489889428,-0.0026574167423,1.21846967915e-07,0.0,0.0,0.0,1.21846967915e-07,0.0,0.0,0.0,1.21846967915e-07,0.063285626471,0.155732452869,9.83090496063,9e-08,0.0,0.0,0.0,9e-08,0.0,0.0,0.0,9e-08
1560461217018064937,12234,1560461217015530624,base_link,0.01019432035,0.000925617233195,0.38555224736,0.92262920076,1.0,0.0,0.0,0.0,1.0,0.0,0.0,0.0,1.0,0.000350490008714,-0.000182343588676,-0.000740689458326,1.21846967915e-07,0.0,0.0,0.0,1.21846967915e-07,0.0,0.0,0.0,1.21846967915e-07,0.0551994815469,0.212530851364,9.76177692413,9e-08,0.0,0.0,0.0,9e-08,0.0,0.0,0.0,9e-08
1560461217037988317,12235,1560461217035530624,base_link,0.0101957800139,0.000933373241138,0.385553511766,0.922628694998,1.0,0.0,0.0,0.0,1.0,0.0,0.0,0.0,1.0,0.000348552071955,0.00161675992422,-0.00117203360423,1.21846967915e-07,0.0,0.0,0.0,1.21846967915e-07,0.0,0.0,0.0,1.21846967915e-07,0.035283703357,0.166405618191,9.76976776123,9e-08,0.0,0.0,0.0,9e-08,0.0,0.0,0.0,9e-08
1560461217059067110,12236,1560461217055530624,base_link,0.010205716792,0.000927591878902,0.385560803171,0.922625618278,1.0,0.0,0.0,0.0,1.0,0.0,0.0,0.0,1.0,0.000244471448241,-0.00274684373289,-0.00104394217487,1.21846967915e-07,0.0,0.0,0.0,1.21846967915e-07,0.0,0.0,0.0,1.21846967915e-07,0.064360819757,0.178006067872,9.80376434326,9e-08,0.0,0.0,0.0,9e-08,0.0,0.0,0.0,9e-08
1560461217078656134,12237,1560461217075528320,base_link,0.0102095139597,0.000922384108933,0.385577366882,0.92261849546,1.0,0.0,0.0,0.0,1.0,0.0,0.0,0.0,1.0,0.000240508845309,-0.000405112281442,-0.0012648771517,1.21846967915e-07,0.0,0.0,0.0,1.21846967915e-07,0.0,0.0,0.0,1.21846967915e-07,0.0623420327902,0.209446623921,9.82813549042,9e-08,0.0,0.0,0.0,9e-08,0.0,0.0,0.0,9e-08
1560461217098121136,12238,1560461217095528320,base_link,0.0101940391515,0.00092435875464,0.385583414955,0.922616240604,1.0,0.0,0.0,0.0,1.0,0.0,0.0,0.0,1.0,-0.00103258236777,0.00171488663182,-0.00136265542824,1.21846967915e-07,0.0,0.0,0.0,1.21846967915e-07,0.0,0.0,0.0,1.21846967915e-07,0.0486865788698,0.19240950048,9.78099918365,9e-08,0.0,0.0,0.0,9e-08,0.0,0.0,0.0,9e-08
1560461217115620671,12239,1560461217111528320,base_link,0.0101929430042,0.000930803600468,0.385587861447,0.922614407216,1.0,0.0,0.0,0.0,1.0,0.0,0.0,0.0,1.0,0.000676589785144,0.000335466465913,-0.00064223993104,1.21846967915e-07,0.0,0.0,0.0,1.21846967915e-07,0.0,0.0,0.0,1.21846967915e-07,0.0669229328632,0.177528217435,9.80223369598,9e-08,0.0,0.0,0.0,9e-08,0.0,0.0,0.0,9e-08
1560461217139363899,12240,1560461217135528320,base_link,0.0102068804402,0.00092297087209,0.38560307646,0.922607874454,1.0,0.0,0.0,0.0,1.0,0.0,0.0,0.0,1.0,0.00087191129569,-0.00190324033611,-0.00180028670002,1.21846967915e-07,0.0,0.0,0.0,1.21846967915e-07,0.0,0.0,0.0,1.21846967915e-07,0.0799544304609,0.212145268917,9.7733631134,9e-08,0.0,0.0,0.0,9e-08,0.0,0.0,0.0,9e-08
1560461217159043908,12241,1560461217155528320,base_link,0.0102101359549,0.000923561257241,0.385605057361,0.922607073664,1.0,0.0,0.0,0.0,1.0,0.0,0.0,0.0,1.0,-8.75709883985e-05,-9.72373527475e-05,-0.00254355976358,1.21846967915e-07,0.0,0.0,0.0,1.21846967915e-07,0.0,0.0,0.0,1.21846967915e-07,0.0557290278375,0.185719668865,9.82301998138,9e-08,0.0,0.0,0.0,9e-08,0.0,0.0,0.0,9e-08
1560461217179108239,12242,1560461217175524992,base_link,0.0101977602573,0.000920142423428,0.385611295095,0.922604629147,1.0,0.0,0.0,0.0,1.0,0.0,0.0,0.0,1.0,-0.00230057002045,0.00171840889379,-0.000604575383477,1.21846967915e-07,0.0,0.0,0.0,1.21846967915e-07,0.0,0.0,0.0,1.21846967915e-07,0.0758161470294,0.163914576173,9.82214927673,9e-08,0.0,0.0,0.0,9e-08,0.0,0.0,0.0,9e-08
1560461217198222006,12243,1560461217195524992,base_link,0.0102017678299,0.000923161520725,0.385613191703,0.92260365977,1.0,0.0,0.0,0.0,1.0,0.0,0.0,0.0,1.0,0.000956738716923,0.00117194221821,-0.00245315069333,1.21846967915e-07,0.0,0.0,0.0,1.21846967915e-07,0.0,0.0,0.0,1.21846967915e-07,0.0571991913021,0.167903020978,9.77839660645,9e-08,0.0,0.0,0.0,9e-08,0.0,0.0,0.0,9e-08
1560461217216594341,12244,1560461217211524992,base_link,0.0101946575248,0.000928967907652,0.385617638196,0.922601994969,1.0,0.0,0.0,0.0,1.0,0.0,0.0,0.0,1.0,-0.00180188391823,0.000863854191266,-0.00241214735433,1.21846967915e-07,0.0,0.0,0.0,1.21846967915e-07,0.0,0.0,0.0,1.21846967915e-07,0.0507587827742,0.17858761549,9.83280563354,9e-08,0.0,0.0,0.0,9e-08,0.0,0.0,0.0,9e-08
1560461217238321280,12245,1560461217235524992,base_link,0.0102044965091,0.000919574099518,0.385628238128,0.922597379889,1.0,0.0,0.0,0.0,1.0,0.0,0.0,0.0,1.0,-5.8313824411e-05,-0.000608165224548,-0.000303645385429,1.21846967915e-07,0.0,0.0,0.0,1.21846967915e-07,0.0,0.0,0.0,1.21846967915e-07,0.057466417551,0.206426352262,9.80010509491,9e-08,0.0,0.0,0.0,9e-08,0.0,0.0,0.0,9e-08
1560461217259037149,12246,1560461217255524992,base_link,0.0102079690142,0.00092465081913,0.385641409018,0.922591879725,1.0,0.0,0.0,0.0,1.0,0.0,0.0,0.0,1.0,-6.62221646053e-05,0.000657888362184,-0.00040666339919,1.21846967915e-07,0.0,0.0,0.0,1.21846967915e-07,0.0,0.0,0.0,1.21846967915e-07,0.0524106547236,0.209765389562,9.78067874908,9e-08,0.0,0.0,0.0,9e-08,0.0,0.0,0.0,9e-08
1560461217278502959,12247,1560461217275522944,base_link,0.0102099509039,0.000929175349172,0.385645834437,0.922589898824,1.0,0.0,0.0,0.0,1.0,0.0,0.0,0.0,1.0,-9.22061299207e-05,-9.80664044619e-05,-0.00242393394001,1.21846967915e-07,0.0,0.0,0.0,1.21846967915e-07,0.0,0.0,0.0,1.21846967915e-07,0.0706712305546,0.171579286456,9.78690719604,9e-08,0.0,0.0,0.0,9e-08,0.0,0.0,0.0,9e-08
1560461217298167577,12248,1560461217295522944,base_link,0.0101987197566,0.000930899747966,0.385661449845,0.922583555723,1.0,0.0,0.0,0.0,1.0,0.0,0.0,0.0,1.0,-0.0017873615725,0.0016112398589,-0.00166277564131,1.21846967915e-07,0.0,0.0,0.0,1.21846967915e-07,0.0,0.0,0.0,1.21846967915e-07,0.051559612155,0.213327199221,9.82595348358,9e-08,0.0,0.0,0.0,9e-08,0.0,0.0,0.0,9e-08
1560461217318223148,12249,1560461217315522944,base_link,0.0101922436299,0.000932594841529,0.385671733676,0.922579341038,1.0,0.0,0.0,0.0,1.0,0.0,0.0,0.0,1.0,0.000652614398859,0.000222276430577,-0.00200354144908,1.21846967915e-07,0.0,0.0,0.0,1.21846967915e-07,0.0,0.0,0.0,1.21846967915e-07,0.0518224947155,0.169481396675,9.80615615845,9e-08,0.0,0.0,0.0,9e-08,0.0,0.0,0.0,9e-08
1560461217336372453,12250,1560461217331522944,base_link,0.0101993341787,0.00093361756115,0.385678772199,0.922576348612,1.0,0.0,0.0,0.0,1.0,0.0,0.0,0.0,1.0,0.00130193203222,-0.000305013963953,-0.00158327014651,1.21846967915e-07,0.0,0.0,0.0,1.21846967915e-07,0.0,0.0,0.0,1.21846967915e-07,0.024343278259,0.190083935857,9.74807453156,9e-08,0.0,0.0,0.0,9e-08,0.0,0.0,0.0,9e-08
1560461217358666807,12251,1560461217355522944,base_link,0.010205190615,0.000926081836345,0.385698496925,0.922568087829,1.0,0.0,0.0,0.0,1.0,0.0,0.0,0.0,1.0,-0.000390310131479,-0.00157919502817,-0.00080794445239,1.21846967915e-07,0.0,0.0,0.0,1.21846967915e-07,0.0,0.0,0.0,1.21846967915e-07,0.0646454170346,0.177545323968,9.80510520935,9e-08,0.0,0.0,0.0,9e-08,0.0,0.0,0.0,9e-08
1560461217376578383,12252,1560461217371521152,base_link,0.010203297958,0.000928687038419,0.385706757707,0.9225644632,1.0,0.0,0.0,0.0,1.0,0.0,0.0,0.0,1.0,0.000121263234178,0.0018200367922,-0.00221236771904,1.21846967915e-07,0.0,0.0,0.0,1.21846967915e-07,0.0,0.0,0.0,1.21846967915e-07,0.0721635371447,0.183157026768,9.79688453674,9e-08,0.0,0.0,0.0,9e-08,0.0,0.0,0.0,9e-08
1560461217397635031,12253,1560461217395521152,base_link,0.0102148685851,0.000933807880513,0.385720328992,0.922558731229,1.0,0.0,0.0,0.0,1.0,0.0,0.0,0.0,1.0,0.00056615046924,-0.000298791390378,-0.00135864515323,1.21846967915e-07,0.0,0.0,0.0,1.21846967915e-07,0.0,0.0,0.0,1.21846967915e-07,0.0567124187946,0.210613265634,9.77685260773,9e-08,0.0,0.0,0.0,9e-08,0.0,0.0,0.0,9e-08
1560461217416954126,12254,1560461217412521152,base_link,0.0102100980886,0.000932611963687,0.385735902253,0.922552261688,1.0,0.0,0.0,0.0,1.0,0.0,0.0,0.0,1.0,0.000886531954166,0.000339590362273,-0.000618126243353,1.21846967915e-07,0.0,0.0,0.0,1.21846967915e-07,0.0,0.0,0.0,1.21846967915e-07,0.0483914315701,0.178431212902,9.80143356323,9e-08,0.0,0.0,0.0,9e-08,0.0,0.0,0.0,9e-08
1560461217435273754,12255,1560461217432521152,base_link,0.0102056351325,0.000939502314874,0.385751306926,0.922545960734,1.0,0.0,0.0,0.0,1.0,0.0,0.0,0.0,1.0,0.00109630066436,0.000338921323419,-0.000821859342977,1.21846967915e-07,0.0,0.0,0.0,1.21846967915e-07,0.0,0.0,0.0,1.21846967915e-07,0.0448108166456,0.166060626507,9.78532028198,9e-08,0.0,0.0,0.0,9e-08,0.0,0.0,0.0,9e-08
1560461217457018519,12256,1560461217452521152,base_link,0.0102205340435,0.000932196422102,0.385769809392,0.92253799498,1.0,0.0,0.0,0.0,1.0,0.0,0.0,0.0,1.0,0.00163485168014,-0.000833000522107,-0.000510269543156,1.21846967915e-07,0.0,0.0,0.0,1.21846967915e-07,0.0,0.0,0.0,1.21846967915e-07,0.0608842931688,0.222536921501,9.77411746979,9e-08,0.0,0.0,0.0,9e-08,0.0,0.0,0.0,9e-08
1560461217476459280,12257,1560461217472518592,base_link,0.010217715473,0.000932973504621,0.38578856474,0.922530282106,1.0,0.0,0.0,0.0,1.0,0.0,0.0,0.0,1.0,-0.00178455701098,0.00182248011697,-0.00153993326239,1.21846967915e-07,0.0,0.0,0.0,1.21846967915e-07,0.0,0.0,0.0,1.21846967915e-07,0.0727859511971,0.223957479,9.7739648819,9e-08,0.0,0.0,0.0,9e-08,0.0,0.0,0.0,9e-08
1560461217498982727,12258,1560461217496518592,base_link,0.0101932742521,0.000949276432461,0.385791936488,0.922529017701,1.0,0.0,0.0,0.0,1.0,0.0,0.0,0.0,1.0,-0.000828609976452,0.00118484930135,-0.00186651176773,1.21846967915e-07,0.0,0.0,0.0,1.21846967915e-07,0.0,0.0,0.0,1.21846967915e-07,0.0442541688681,0.175900742412,9.7794303894,9e-08,0.0,0.0,0.0,9e-08,0.0,0.0,0.0,9e-08
1560461217515830468,12259,1560461217512518592,base_link,0.0101980687854,0.000943662669803,0.385805739581,0.922523306803,1.0,0.0,0.0,0.0,1.0,0.0,0.0,0.0,1.0,0.00280335731804,-0.000829561497085,-0.000525354233105,1.21846967915e-07,0.0,0.0,0.0,1.21846967915e-07,0.0,0.0,0.0,1.21846967915e-07,0.0738368481398,0.226228028536,9.74395561218,9e-08,0.0,0.0,0.0,9e-08,0.0,0.0,0.0,9e-08
1560461217537372410,12260,1560461217532518592,base_link,0.0102070868939,0.000939782525562,0.385823862725,0.922515551783,1.0,0.0,0.0,0.0,1.0,0.0,0.0,0.0,1.0,0.000329735630658,-0.000843233021442,-0.00261229136959,1.21846967915e-07,0.0,0.0,0.0,1.21846967915e-07,0.0,0.0,0.0,1.21846967915e-07,0.0896839424968,0.174871474504,9.7594499588,9e-08,0.0,0.0,0.0,9e-08,0.0,0.0,0.0,9e-08
1560461217555696744,12261,1560461217552518592,base_link,0.0102008988804,0.000942776598167,0.385833029665,0.922511695346,1.0,0.0,0.0,0.0,1.0,0.0,0.0,0.0,1.0,-0.000425675301813,0.000431961030699,-0.00346110016108,1.21846967915e-07,0.0,0.0,0.0,1.21846967915e-07,0.0,0.0,0.0,1.21846967915e-07,0.0484601408243,0.191527575254,9.84421634674,9e-08,0.0,0.0,0.0,9e-08,0.0,0.0,0.0,9e-08
1560461217579605715,12262,1560461217576515520,base_link,0.0102083302259,0.000942805244853,0.385852164334,0.922503687445,1.0,0.0,0.0,0.0,1.0,0.0,0.0,0.0,1.0,0.00078295217827,0.000332513009198,-0.000283637549728,1.21846967915e-07,0.0,0.0,0.0,1.21846967915e-07,0.0,0.0,0.0,1.21846967915e-07,0.0728522017598,0.201364904642,9.76279067993,9e-08,0.0,0.0,0.0,9e-08,0.0,0.0,0.0,9e-08
1560461217595560209,12263,1560461217592515520,base_link,0.0101994003624,0.000941710743881,0.385863080368,0.922499262026,1.0,0.0,0.0,0.0,1.0,0.0,0.0,0.0,1.0,-0.00178753270302,0.00107705651317,-0.00184317585081,1.21846967915e-07,0.0,0.0,0.0,1.21846967915e-07,0.0,0.0,0.0,1.21846967915e-07,0.0793572217226,0.171085253358,9.80799102783,9e-08,0.0,0.0,0.0,9e-08,0.0,0.0,0.0,9e-08
1560461217619914738,12264,1560461217616515520,base_link,0.0101819525549,0.000950352494187,0.385877030975,0.922493572201,1.0,0.0,0.0,0.0,1.0,0.0,0.0,0.0,1.0,-0.000605791341513,0.000331005314365,-0.00111088017002,1.21846967915e-07,0.0,0.0,0.0,1.21846967915e-07,0.0,0.0,0.0,1.21846967915e-07,0.0716112926602,0.193514496088,9.79933547974,9e-08,0.0,0.0,0.0,9e-08,0.0,0.0,0.0,9e-08
1560461217639263196,12265,1560461217636515520,base_link,0.0101848896634,0.000941226384395,0.385900591063,0.922483667692,1.0,0.0,0.0,0.0,1.0,0.0,0.0,0.0,1.0,0.00175340927672,-0.000612874864601,0.000669697765261,1.21846967915e-07,0.0,0.0,0.0,1.21846967915e-07,0.0,0.0,0.0,1.21846967915e-07,0.0773015320301,0.215185970068,9.76242733002,9e-08,0.0,0.0,0.0,9e-08,0.0,0.0,0.0,9e-08
1560461217660494957,12266,1560461217656515520,base_link,0.0101894728039,0.000940046601909,0.385914120202,0.922477977867,1.0,0.0,0.0,0.0,1.0,0.0,0.0,0.0,1.0,9.98928953777e-06,-0.000402191712055,-0.00218198634684,1.21846967915e-07,0.0,0.0,0.0,1.21846967915e-07,0.0,0.0,0.0,1.21846967915e-07,0.0756322294474,0.204457908869,9.80372238159,9e-08,0.0,0.0,0.0,9e-08,0.0,0.0,0.0,9e-08
1560461217676403370,12267,1560461217672513472,base_link,0.0101808929568,0.000939809855159,0.385925289116,0.922473468155,1.0,0.0,0.0,0.0,1.0,0.0,0.0,0.0,1.0,-0.000924503139686,0.00203759176657,-0.000893641728908,1.21846967915e-07,0.0,0.0,0.0,1.21846967915e-07,0.0,0.0,0.0,1.21846967915e-07,0.0528928041458,0.214679419994,9.75236988068,9e-08,0.0,0.0,0.0,9e-08,0.0,0.0,0.0,9e-08
1560461217699101736,12268,1560461217696513472,base_link,0.0101906390862,0.000947516472263,0.385927164651,0.92247251985,1.0,0.0,0.0,0.0,1.0,0.0,0.0,0.0,1.0,0.00276724435389,-0.00147965247743,-0.00295647094026,1.21846967915e-07,0.0,0.0,0.0,1.21846967915e-07,0.0,0.0,0.0,1.21846967915e-07,0.0748433545232,0.173418819904,9.888215065,9e-08,0.0,0.0,0.0,9e-08,0.0,0.0,0.0,9e-08
1560461217717137504,12269,1560461217712513472,base_link,0.0102038567331,0.000926302778028,0.385938649667,0.922467525449,1.0,0.0,0.0,0.0,1.0,0.0,0.0,0.0,1.0,-0.00102790025994,-0.00140853528865,-0.00227872980759,1.21846967915e-07,0.0,0.0,0.0,1.21846967915e-07,0.0,0.0,0.0,1.21846967915e-07,0.0702657699585,0.233355328441,9.76945590973,9e-08,0.0,0.0,0.0,9e-08,0.0,0.0,0.0,9e-08
1560461217736098262,12270,1560461217732513472,base_link,0.0101522676734,0.000936500998278,0.385936036563,0.922469295617,1.0,0.0,0.0,0.0,1.0,0.0,0.0,0.0,1.0,-0.00482040457428,0.00510275736451,-0.00553226051852,1.21846967915e-07,0.0,0.0,0.0,1.21846967915e-07,0.0,0.0,0.0,1.21846967915e-07,0.0622973144054,0.176139950752,9.74473381042,9e-08,0.0,0.0,0.0,9e-08,0.0,0.0,0.0,9e-08
1560461217756488586,12271,1560461217753513472,base_link,0.0101607085676,0.000947259310633,0.385940461982,0.922467314715,1.0,0.0,0.0,0.0,1.0,0.0,0.0,0.0,1.0,0.00462357001379,-0.00445425324142,-0.000503745861351,1.21846967915e-07,0.0,0.0,0.0,1.21846967915e-07,0.0,0.0,0.0,1.21846967915e-07,0.0193423442543,0.141235083342,9.90566539764,9e-08,0.0,0.0,0.0,9e-08,0.0,0.0,0.0,9e-08
1560461217777001432,12272,1560461217773511680,base_link,0.0102178060228,0.000902240878795,0.385987729672,0.922446936713,1.0,0.0,0.0,0.0,1.0,0.0,0.0,0.0,1.0,-6.9032124884e-05,-0.00231579924002,-0.000140326679684,1.21846967915e-07,0.0,0.0,0.0,1.21846967915e-07,0.0,0.0,0.0,1.21846967915e-07,0.105905741453,0.332273155451,9.75953197479,9e-08,0.0,0.0,0.0,9e-08,0.0,0.0,0.0,9e-08
1560461217797934653,12273,1560461217793511680,base_link,0.0101574303331,0.000935526681679,0.385980754369,0.922450455975,1.0,0.0,0.0,0.0,1.0,0.0,0.0,0.0,1.0,-0.00502111203969,0.00957596581429,-0.0048053888604,1.21846967915e-07,0.0,0.0,0.0,1.21846967915e-07,0.0,0.0,0.0,1.21846967915e-07,0.0351028628647,0.16568480432,9.84714794159,9e-08,0.0,0.0,0.0,9e-08,0.0,0.0,0.0,9e-08
1560461217816982357,12274,1560461217813511680,base_link,0.0101394115675,0.000943135175652,0.385997802769,0.922443522819,1.0,0.0,0.0,0.0,1.0,0.0,0.0,0.0,1.0,0.00218168459833,-0.00369655364193,0.000803208444268,1.21846967915e-07,0.0,0.0,0.0,1.21846967915e-07,0.0,0.0,0.0,1.21846967915e-07,0.040855307132,0.104586467147,9.81433391571,9e-08,0.0,0.0,0.0,9e-08,0.0,0.0,0.0,9e-08
1560461217837081253,12275,1560461217833511680,base_link,0.0101928814303,0.000911781871627,0.386033522223,0.922428033852,1.0,0.0,0.0,0.0,1.0,0.0,0.0,0.0,1.0,0.00387493870221,-0.00211056135595,-0.000180793576874,1.21846967915e-07,0.0,0.0,0.0,1.21846967915e-07,0.0,0.0,0.0,1.21846967915e-07,0.0859955921769,0.276440024376,9.73305606842,9e-08,0.0,0.0,0.0,9e-08,0.0,0.0,0.0,9e-08
1560461217856036369,12276,1560461217853511680,base_link,0.0101791655946,0.000934654110206,0.386033669737,0.922428054925,1.0,0.0,0.0,0.0,1.0,0.0,0.0,0.0,1.0,-0.00256043300033,0.00436397548765,-0.00374461477622,1.21846967915e-07,0.0,0.0,0.0,1.21846967915e-07,0.0,0.0,0.0,1.21846967915e-07,0.0955886021256,0.198505595326,9.83504867554,9e-08,0.0,0.0,0.0,9e-08,0.0,0.0,0.0,9e-08
1560461217877701700,12277,1560461217873506816,base_link,0.0101484283589,0.000937424277679,0.386051455707,0.922420974255,1.0,0.0,0.0,0.0,1.0,0.0,0.0,0.0,1.0,-0.0013343085302,-0.00157360720914,0.000313899829052,1.21846967915e-07,0.0,0.0,0.0,1.21846967915e-07,0.0,0.0,0.0,1.21846967915e-07,0.0614110827446,0.170430168509,9.74759483337,9e-08,0.0,0.0,0.0,9e-08,0.0,0.0,0.0,9e-08
1560461217895967048,12278,1560461217893506816,base_link,0.0101594240766,0.000941959673705,0.386069578852,0.922413303528,1.0,0.0,0.0,0.0,1.0,0.0,0.0,0.0,1.0,0.00140817533247,0.00129195442423,-0.00154226913583,1.21846967915e-07,0.0,0.0,0.0,1.21846967915e-07,0.0,0.0,0.0,1.21846967915e-07,0.0492142699659,0.171684518456,9.8388299942,9e-08,0.0,0.0,0.0,9e-08,0.0,0.0,0.0,9e-08
1560461217917387750,12279,1560461217913506816,base_link,0.0101721231196,0.000933032773627,0.386067998345,0.922413872511,1.0,0.0,0.0,0.0,1.0,0.0,0.0,0.0,1.0,0.000440818897914,-0.0010560657829,-0.00226341653615,1.21846967915e-07,0.0,0.0,0.0,1.21846967915e-07,0.0,0.0,0.0,1.21846967915e-07,0.0619776509702,0.224699407816,9.8620262146,9e-08,0.0,0.0,0.0,9e-08,0.0,0.0,0.0,9e-08
1560461217936109016,12280,1560461217933506816,base_link,0.0101585989203,0.000932693293933,0.386080810987,0.922408646302,1.0,0.0,0.0,0.0,1.0,0.0,0.0,0.0,1.0,-0.000505402334966,0.000760755501688,-0.0017261946341,1.21846967915e-07,0.0,0.0,0.0,1.21846967915e-07,0.0,0.0,0.0,1.21846967915e-07,0.0797630399466,0.227007269859,9.77673625946,9e-08,0.0,0.0,0.0,9e-08,0.0,0.0,0.0,9e-08
1560461217956180488,12281,1560461217953506816,base_link,0.0101623348433,0.000931762770544,0.386091811315,0.922403968001,1.0,0.0,0.0,0.0,1.0,0.0,0.0,0.0,1.0,0.000669127155561,-0.00104345194995,-0.00109239877202,1.21846967915e-07,0.0,0.0,0.0,1.21846967915e-07,0.0,0.0,0.0,1.21846967915e-07,0.0622636601329,0.181083872914,9.78694534302,9e-08,0.0,0.0,0.0,9e-08,0.0,0.0,0.0,9e-08
1560461217976363002,12282,1560461217973504768,base_link,0.0101734204523,0.000925550390927,0.386107426722,0.922397287726,1.0,0.0,0.0,0.0,1.0,0.0,0.0,0.0,1.0,0.00193829287309,-0.000943300896324,-0.00174385891296,1.21846967915e-07,0.0,0.0,0.0,1.21846967915e-07,0.0,0.0,0.0,1.21846967915e-07,0.0578576996922,0.208842605352,9.77619743347,9e-08,0.0,0.0,0.0,9e-08,0.0,0.0,0.0,9e-08
1560461217996374351,12283,1560461217993504768,base_link,0.010172543271,0.000928945846411,0.386115603211,0.922393831684,1.0,0.0,0.0,0.0,1.0,0.0,0.0,0.0,1.0,-0.00061444111634,0.00129384186585,-0.00172202952672,1.21846967915e-07,0.0,0.0,0.0,1.21846967915e-07,0.0,0.0,0.0,1.21846967915e-07,0.0980627089739,0.190538764,9.82621192932,9e-08,0.0,0.0,0.0,9e-08,0.0,0.0,0.0,9e-08
1560461218017324642,12284,1560461218013504768,base_link,0.010163137609,0.000932404851439,0.386129827772,0.922388036493,1.0,0.0,0.0,0.0,1.0,0.0,0.0,0.0,1.0,-0.00124787411187,0.000980701763183,-0.000748611229938,1.21846967915e-07,0.0,0.0,0.0,1.21846967915e-07,0.0,0.0,0.0,1.21846967915e-07,0.0572724826634,0.20282304287,9.80941867828,9e-08,0.0,0.0,0.0,9e-08,0.0,0.0,0.0,9e-08
1560461218037287313,12285,1560461218033504768,base_link,0.0101532410022,0.00093268407431,0.386139584768,0.922384011469,1.0,0.0,0.0,0.0,1.0,0.0,0.0,0.0,1.0,0.000761575938668,-0.000421525735874,-0.00289731123485,1.21846967915e-07,0.0,0.0,0.0,1.21846967915e-07,0.0,0.0,0.0,1.21846967915e-07,0.0636049062014,0.196020081639,9.7785615921,9e-08,0.0,0.0,0.0,9e-08,0.0,0.0,0.0,9e-08
1560461218056184790,12286,1560461218053504768,base_link,0.010173279853,0.000930947492443,0.386156443507,0.922376762211,1.0,0.0,0.0,0.0,1.0,0.0,0.0,0.0,1.0,0.0010947677074,-0.00104786397424,-0.00130051060114,1.21846967915e-07,0.0,0.0,0.0,1.21846967915e-07,0.0,0.0,0.0,1.21846967915e-07,0.0625129714608,0.185233190656,9.80450344086,9e-08,0.0,0.0,0.0,9e-08,0.0,0.0,0.0,9e-08
1560461218077169099,12287,1560461218073502976,base_link,0.0101723865374,0.00092344568268,0.386170141233,0.922371072386,1.0,0.0,0.0,0.0,1.0,0.0,0.0,0.0,1.0,-0.000626283581369,0.000967102474533,-0.00245292391628,1.21846967915e-07,0.0,0.0,0.0,1.21846967915e-07,0.0,0.0,0.0,1.21846967915e-07,0.0649640634656,0.233588129282,9.76779842377,9e-08,0.0,0.0,0.0,9e-08,0.0,0.0,0.0,9e-08
1560461218096160458,12288,1560461218093502976,base_link,0.0101574059669,0.000934560596886,0.386175451736,0.922368965044,1.0,0.0,0.0,0.0,1.0,0.0,0.0,0.0,1.0,-0.000411707762396,0.00107273703907,-0.00288254022598,1.21846967915e-07,0.0,0.0,0.0,1.21846967915e-07,0.0,0.0,0.0,1.21846967915e-07,0.0596578121185,0.142513841391,9.80426692963,9e-08,0.0,0.0,0.0,9e-08,0.0,0.0,0.0,9e-08
1560461218117411679,12289,1560461218113502976,base_link,0.0101641879875,0.000934349533371,0.386198316401,0.922359334489,1.0,0.0,0.0,0.0,1.0,0.0,0.0,0.0,1.0,0.00161250750534,-0.00179917446803,-0.00109144987073,1.21846967915e-07,0.0,0.0,0.0,1.21846967915e-07,0.0,0.0,0.0,1.21846967915e-07,0.0596333704889,0.204128861427,9.73888111115,9e-08,0.0,0.0,0.0,9e-08,0.0,0.0,0.0,9e-08
1560461218136559404,12290,1560461218133502976,base_link,0.0101576565431,0.000930929053196,0.386207609781,0.922355604493,1.0,0.0,0.0,0.0,1.0,0.0,0.0,0.0,1.0,-0.00105762993917,0.00107253936585,-0.00287202978507,1.21846967915e-07,0.0,0.0,0.0,1.21846967915e-07,0.0,0.0,0.0,1.21846967915e-07,0.0839941725135,0.234226346016,9.80532646179,9e-08,0.0,0.0,0.0,9e-08,0.0,0.0,0.0,9e-08
1560461218155891916,12291,1560461218153502976,base_link,0.0101508020826,0.000944932672886,0.386224257786,0.922348650263,1.0,0.0,0.0,0.0,1.0,0.0,0.0,0.0,1.0,0.00100533652585,0.000562708475627,0.000401657307521,1.21846967915e-07,0.0,0.0,0.0,1.21846967915e-07,0.0,0.0,0.0,1.21846967915e-07,0.0441484972835,0.143334969878,9.88895606995,9e-08,0.0,0.0,0.0,9e-08,0.0,0.0,0.0,9e-08
1560461218176368558,12292,1560461218173500928,base_link,0.0101654714908,0.00092866958699,0.386245436578,0.922339694057,1.0,0.0,0.0,0.0,1.0,0.0,0.0,0.0,1.0,0.00055824033916,-0.00200728420168,-0.00148849794641,1.21846967915e-07,0.0,0.0,0.0,1.21846967915e-07,0.0,0.0,0.0,1.21846967915e-07,0.0706243962049,0.212476909161,9.72919273376,9e-08,0.0,0.0,0.0,9e-08,0.0,0.0,0.0,9e-08
1560461218196371788,12293,1560461218193500928,base_link,0.0101622153175,0.000945565534159,0.3862551725,0.922335521519,1.0,0.0,0.0,0.0,1.0,0.0,0.0,0.0,1.0,0.000442431977717,0.00298275984824,-0.00289452099241,1.21846967915e-07,0.0,0.0,0.0,1.21846967915e-07,0.0,0.0,0.0,1.21846967915e-07,0.0630070567131,0.191437572241,9.80294895172,9e-08,0.0,0.0,0.0,9e-08,0.0,0.0,0.0,9e-08
1560461218217268791,12294,1560461218213500928,base_link,0.0101455877272,0.000948778572813,0.38626914418,0.922329894915,1.0,0.0,0.0,0.0,1.0,0.0,0.0,0.0,1.0,-0.00156126974616,0.000656919786707,-0.000725897552911,1.21846967915e-07,0.0,0.0,0.0,1.21846967915e-07,0.0,0.0,0.0,1.21846967915e-07,0.0787865892053,0.170981556177,9.81038188934,9e-08,0.0,0.0,0.0,9e-08,0.0,0.0,0.0,9e-08
1560461218237494374,12295,1560461218234500928,base_link,0.0101502709664,0.00094486451353,0.386288363143,0.92232180272,1.0,0.0,0.0,0.0,1.0,0.0,0.0,0.0,1.0,-0.000406182021834,-0.000192605773918,-0.00180143932812,1.21846967915e-07,0.0,0.0,0.0,1.21846967915e-07,0.0,0.0,0.0,1.21846967915e-07,0.0629663616419,0.192855626345,9.78068351746,9e-08,0.0,0.0,0.0,9e-08,0.0,0.0,0.0,9e-08
1560461218257049139,12296,1560461218254500928,base_link,0.0101583371489,0.000949753218685,0.386305769791,0.922314427022,1.0,0.0,0.0,0.0,1.0,0.0,0.0,0.0,1.0,0.00151753053069,-0.000197171058971,-0.00129273184575,1.21846967915e-07,0.0,0.0,0.0,1.21846967915e-07,0.0,0.0,0.0,1.21846967915e-07,0.0629929155111,0.183704897761,9.8729352951,9e-08,0.0,0.0,0.0,9e-08,0.0,0.0,0.0,9e-08
1560461218277755968,12297,1560461218274498624,base_link,0.0101778353346,0.000936646865887,0.386323197513,0.922306945956,1.0,0.0,0.0,0.0,1.0,0.0,0.0,0.0,1.0,0.000231672733207,-0.00137222243939,-0.00201286911033,1.21846967915e-07,0.0,0.0,0.0,1.21846967915e-07,0.0,0.0,0.0,1.21846967915e-07,0.0463421270251,0.217122703791,9.80086040497,9e-08,0.0,0.0,0.0,9e-08,0.0,0.0,0.0,9e-08
1560461218297412297,12298,1560461218294498624,base_link,0.0101620401446,0.000938641597202,0.386327391125,0.922305281156,1.0,0.0,0.0,0.0,1.0,0.0,0.0,0.0,1.0,-0.00221719103865,0.000124377664179,-0.00273095350713,1.21846967915e-07,0.0,0.0,0.0,1.21846967915e-07,0.0,0.0,0.0,1.21846967915e-07,0.0567122027278,0.190529629588,9.78848934174,9e-08,0.0,0.0,0.0,9e-08,0.0,0.0,0.0,9e-08
1560461218318551639,12299,1560461218314498624,base_link,0.010160095792,0.00094014604213,0.386334366428,0.92230235195,1.0,0.0,0.0,0.0,1.0,0.0,0.0,0.0,1.0,0.000133135239594,-0.00328391417861,-0.00135801720899,1.21846967915e-07,0.0,0.0,0.0,1.21846967915e-07,0.0,0.0,0.0,1.21846967915e-07,0.0717115998268,0.180665016174,9.84658813477,9e-08,0.0,0.0,0.0,9e-08,0.0,0.0,0.0,9e-08
1560461218336760437,12300,1560461218334498624,base_link,0.0101827464303,0.000918655759201,0.386356156349,0.922293037496,1.0,0.0,0.0,0.0,1.0,0.0,0.0,0.0,1.0,0.00173979252577,-0.00190080772154,-0.000852430122904,1.21846967915e-07,0.0,0.0,0.0,1.21846967915e-07,0.0,0.0,0.0,1.21846967915e-07,0.0756165012717,0.257462441921,9.78245258331,9e-08,0.0,0.0,0.0,9e-08,0.0,0.0,0.0,9e-08
1560461218358679334,12301,1560461218354498624,base_link,0.0101644619421,0.000927847064899,0.386365555096,0.92228937072,1.0,0.0,0.0,0.0,1.0,0.0,0.0,0.0,1.0,-0.000389080494642,0.00258253677748,-0.00105966918636,1.21846967915e-07,0.0,0.0,0.0,1.21846967915e-07,0.0,0.0,0.0,1.21846967915e-07,0.0543484911323,0.188312828541,9.7733669281,9e-08,0.0,0.0,0.0,9e-08,0.0,0.0,0.0,9e-08
1560461218378308781,12302,1560461218374496576,base_link,0.0101661214742,0.000939330764029,0.386384479031,0.922281320672,1.0,0.0,0.0,0.0,1.0,0.0,0.0,0.0,1.0,0.00248110992834,-0.000408235937357,-0.000869162438903,1.21846967915e-07,0.0,0.0,0.0,1.21846967915e-07,0.0,0.0,0.0,1.21846967915e-07,0.013376776129,0.175909876823,9.8308095932,9e-08,0.0,0.0,0.0,9e-08,0.0,0.0,0.0,9e-08
1560461218397016460,12303,1560461218394496576,base_link,0.010188009518,0.000929516475227,0.386403993022,0.922272849156,1.0,0.0,0.0,0.0,1.0,0.0,0.0,0.0,1.0,0.0015377337113,-0.00125371199101,0.000214964733459,1.21846967915e-07,0.0,0.0,0.0,1.21846967915e-07,0.0,0.0,0.0,1.21846967915e-07,0.0770467594266,0.217619001865,9.8255739212,9e-08,0.0,0.0,0.0,9e-08,0.0,0.0,0.0,9e-08
1560461218418429775,12304,1560461218414496576,base_link,0.0101784961841,0.000933824673398,0.386414614028,0.922268634471,1.0,0.0,0.0,0.0,1.0,0.0,0.0,0.0,1.0,-0.00307655776851,0.00245710415766,-0.00261345552281,1.21846967915e-07,0.0,0.0,0.0,1.21846967915e-07,0.0,0.0,0.0,1.21846967915e-07,0.0556727126241,0.201759397984,9.79184627533,9e-08,0.0,0.0,0.0,9e-08,0.0,0.0,0.0,9e-08
1560461218437698173,12305,1560461218434496576,base_link,0.0101518626685,0.000941860892029,0.386418133289,0.922267391139,1.0,0.0,0.0,0.0,1.0,0.0,0.0,0.0,1.0,-0.00114810350351,0.000335968565196,-0.00113162549678,1.21846967915e-07,0.0,0.0,0.0,1.21846967915e-07,0.0,0.0,0.0,1.21846967915e-07,0.0399033799767,0.155571296811,9.79741573334,9e-08,0.0,0.0,0.0,9e-08,0.0,0.0,0.0,9e-08
1560461218457130721,12306,1560461218454496576,base_link,0.0101856097818,0.000927559280949,0.386441925185,0.922257001941,1.0,0.0,0.0,0.0,1.0,0.0,0.0,0.0,1.0,0.00269651087001,-0.00349971232936,-0.000743728713132,1.21846967915e-07,0.0,0.0,0.0,1.21846967915e-07,0.0,0.0,0.0,1.21846967915e-07,0.0929572731256,0.229441553354,9.79827880859,9e-08,0.0,0.0,0.0,9e-08,0.0,0.0,0.0,9e-08
1560461218477261720,12307,1560461218474494016,base_link,0.0101999835035,0.000933343606635,0.386451239639,0.922252913696,1.0,0.0,0.0,0.0,1.0,0.0,0.0,0.0,1.0,-0.00021708245913,0.00213344627991,-0.00360455363989,1.21846967915e-07,0.0,0.0,0.0,1.21846967915e-07,0.0,0.0,0.0,1.21846967915e-07,0.0706259086728,0.250785797834,9.80622291565,9e-08,0.0,0.0,0.0,9e-08,0.0,0.0,0.0,9e-08
1560461218497371702,12308,1560461218494494016,base_link,0.0101668662881,0.000947268200984,0.386447404276,0.922254978892,1.0,0.0,0.0,0.0,1.0,0.0,0.0,0.0,1.0,-0.0024345505517,0.000224689603783,-0.00238933437504,1.21846967915e-07,0.0,0.0,0.0,1.21846967915e-07,0.0,0.0,0.0,1.21846967915e-07,0.0449788570404,0.167375490069,9.84942245483,9e-08,0.0,0.0,0.0,9e-08,0.0,0.0,0.0,9e-08
1560461218517356118,12309,1560461218514494016,base_link,0.0101791889729,0.000946394970966,0.386463019683,0.922248214323,1.0,0.0,0.0,0.0,1.0,0.0,0.0,0.0,1.0,0.00280198035762,-0.00168528780341,-0.000746569305193,1.21846967915e-07,0.0,0.0,0.0,1.21846967915e-07,0.0,0.0,0.0,1.21846967915e-07,0.0507964342833,0.189344108105,9.78264141083,9e-08,0.0,0.0,0.0,9e-08,0.0,0.0,0.0,9e-08
1560461218537231538,12310,1560461218534494016,base_link,0.010199560718,0.000937585950355,0.386484704237,0.922239005236,1.0,0.0,0.0,0.0,1.0,0.0,0.0,0.0,1.0,-6.27910194453e-05,-0.000717249582522,-0.000824489281513,1.21846967915e-07,0.0,0.0,0.0,1.21846967915e-07,0.0,0.0,0.0,1.21846967915e-07,0.0876694172621,0.225475013256,9.78206825256,9e-08,0.0,0.0,0.0,9e-08,0.0,0.0,0.0,9e-08
1560461218558529085,12311,1560461218554494016,base_link,0.0101909051382,0.000940205311136,0.386494482306,0.922235043433,1.0,0.0,0.0,0.0,1.0,0.0,0.0,0.0,1.0,-0.00137429090682,0.000342192826793,-0.00176440994255,1.21846967915e-07,0.0,0.0,0.0,1.21846967915e-07,0.0,0.0,0.0,1.21846967915e-07,0.0376787632704,0.185775414109,9.79681015015,9e-08,0.0,0.0,0.0,9e-08,0.0,0.0,0.0,9e-08
1560461218577308400,12312,1560461218574491968,base_link,0.0101810128119,0.000946652132597,0.386502153032,0.922231840272,1.0,0.0,0.0,0.0,1.0,0.0,0.0,0.0,1.0,0.00024589948589,0.000551688135602,-0.00103692908306,1.21846967915e-07,0.0,0.0,0.0,1.21846967915e-07,0.0,0.0,0.0,1.21846967915e-07,0.0689888224006,0.202318131924,9.7987947464,9e-08,0.0,0.0,0.0,9e-08,0.0,0.0,0.0,9e-08
1560461218597543923,12313,1560461218594491968,base_link,0.0101815294401,0.000949786475183,0.386517873806,0.922225307511,1.0,0.0,0.0,0.0,1.0,0.0,0.0,0.0,1.0,0.000231164420256,0.000118904747069,-0.00188933010213,1.21846967915e-07,0.0,0.0,0.0,1.21846967915e-07,0.0,0.0,0.0,1.21846967915e-07,0.0517079085112,0.174652889371,9.78091716766,9e-08,0.0,0.0,0.0,9e-08,0.0,0.0,0.0,9e-08
1560461218617195312,12314,1560461218614491968,base_link,0.0101803045473,0.00094929520098,0.386530096393,0.922220165595,1.0,0.0,0.0,0.0,1.0,0.0,0.0,0.0,1.0,-0.000835908169392,-0.00084047857672,-0.00218525109813,1.21846967915e-07,0.0,0.0,0.0,1.21846967915e-07,0.0,0.0,0.0,1.21846967915e-07,0.0675572603941,0.183900743723,9.82306575775,9e-08,0.0,0.0,0.0,9e-08,0.0,0.0,0.0,9e-08
1560461218637571550,12315,1560461218634491968,base_link,0.0101802986204,0.000950215187657,0.38653882079,0.922216498819,1.0,0.0,0.0,0.0,1.0,0.0,0.0,0.0,1.0,0.00108375702985,-0.000519775319844,-0.00189334875904,1.21846967915e-07,0.0,0.0,0.0,1.21846967915e-07,0.0,0.0,0.0,1.21846967915e-07,0.095375135541,0.183729350567,9.7970161438,9e-08,0.0,0.0,0.0,9e-08,0.0,0.0,0.0,9e-08
1560461218656663621,12316,1560461218654491968,base_link,0.0101754372448,0.000940584632772,0.386543646604,0.922214538991,1.0,0.0,0.0,0.0,1.0,0.0,0.0,0.0,1.0,-0.00051807006821,-9.62067279033e-05,-0.00229498697445,1.21846967915e-07,0.0,0.0,0.0,1.21846967915e-07,0.0,0.0,0.0,1.21846967915e-07,0.0548410490155,0.170891523361,9.76963615417,9e-08,0.0,0.0,0.0,9e-08,0.0,0.0,0.0,9e-08
1560461218677813333,12317,1560461218674490176,base_link,0.010187538988,0.00093594024763,0.386559051277,0.922207900862,1.0,0.0,0.0,0.0,1.0,0.0,0.0,0.0,1.0,0.000884151901118,-0.000197349931113,-0.000717166520189,1.21846967915e-07,0.0,0.0,0.0,1.21846967915e-07,0.0,0.0,0.0,1.21846967915e-07,0.0592322349548,0.19120696187,9.77020359039,9e-08,0.0,0.0,0.0,9e-08,0.0,0.0,0.0,9e-08
1560461218698101585,12318,1560461218695490176,base_link,0.01017398252,0.000939324837129,0.386574919566,0.922201557761,1.0,0.0,0.0,0.0,1.0,0.0,0.0,0.0,1.0,-0.00181467249058,0.000813275575638,-0.00112702627666,1.21846967915e-07,0.0,0.0,0.0,1.21846967915e-07,0.0,0.0,0.0,1.21846967915e-07,0.0764948427677,0.178634107113,9.79556465149,9e-08,0.0,0.0,0.0,9e-08,0.0,0.0,0.0,9e-08
1560461218718659050,12319,1560461218716490176,base_link,0.0101675633574,0.000947237578664,0.386578628489,0.922199956181,1.0,0.0,0.0,0.0,1.0,0.0,0.0,0.0,1.0,-9.82743295026e-05,0.00117127061822,-0.00240323110484,1.21846967915e-07,0.0,0.0,0.0,1.21846967915e-07,0.0,0.0,0.0,1.21846967915e-07,0.0630462840199,0.155084758997,9.78538131714,9e-08,0.0,0.0,0.0,9e-08,0.0,0.0,0.0,9e-08
1560461218739116889,12320,1560461218736490176,base_link,0.0101746855163,0.000946311006542,0.386594286043,0.922193402346,1.0,0.0,0.0,0.0,1.0,0.0,0.0,0.0,1.0,0.000447144149803,-0.000420424039476,-0.00219897530042,1.21846967915e-07,0.0,0.0,0.0,1.21846967915e-07,0.0,0.0,0.0,1.21846967915e-07,0.079739741981,0.213794052601,9.7970457077,9e-08,0.0,0.0,0.0,9e-08,0.0,0.0,0.0,9e-08
1560461218756026452,12321,1560461218752490176,base_link,0.0101795534773,0.000939774293755,0.386601493154,0.922190241333,1.0,0.0,0.0,0.0,1.0,0.0,0.0,0.0,1.0,0.000107325904537,-0.00020339130424,-0.00240317638963,1.21846967915e-07,0.0,0.0,0.0,1.21846967915e-07,0.0,0.0,0.0,1.21846967915e-07,0.0549612753093,0.173446372151,9.82762908936,9e-08,0.0,0.0,0.0,9e-08,0.0,0.0,0.0,9e-08
1560461218779012449,12322,1560461218776486336,base_link,0.0101816687222,0.000936011370437,0.386616497432,0.922183919305,1.0,0.0,0.0,0.0,1.0,0.0,0.0,0.0,1.0,0.000130494125187,-0.000944320578128,-0.00154315365944,1.21846967915e-07,0.0,0.0,0.0,1.21846967915e-07,0.0,0.0,0.0,1.21846967915e-07,0.0484069287777,0.196388363838,9.80755233765,9e-08,0.0,0.0,0.0,9e-08,0.0,0.0,0.0,9e-08
1560461218795740168,12323,1560461218792486336,base_link,0.0101729446539,0.000933010712386,0.386629731542,0.922178524509,1.0,0.0,0.0,0.0,1.0,0.0,0.0,0.0,1.0,-0.00200216216035,0.000967730768025,-0.0018443625886,1.21846967915e-07,0.0,0.0,0.0,1.21846967915e-07,0.0,0.0,0.0,1.21846967915e-07,0.0852539688349,0.218786180019,9.75360202789,9e-08,0.0,0.0,0.0,9e-08,0.0,0.0,0.0,9e-08
1560461218819796397,12324,1560461218816486336,base_link,0.0101742261815,0.00093886780724,0.386640331475,0.922174078016,1.0,0.0,0.0,0.0,1.0,0.0,0.0,0.0,1.0,0.000849859090522,0.00106835074257,-0.00347747770138,1.21846967915e-07,0.0,0.0,0.0,1.21846967915e-07,0.0,0.0,0.0,1.21846967915e-07,0.0465797707438,0.189342409372,9.85534763336,9e-08,0.0,0.0,0.0,9e-08,0.0,0.0,0.0,9e-08
1560461218836199607,12325,1560461218832486336,base_link,0.0101769123845,0.000945064052516,0.386654261008,0.922168156384,1.0,0.0,0.0,0.0,1.0,0.0,0.0,0.0,1.0,0.000453315791674,0.00044449721463,-0.00176597083919,1.21846967915e-07,0.0,0.0,0.0,1.21846967915e-07,0.0,0.0,0.0,1.21846967915e-07,0.0809527933598,0.176625087857,9.83069419861,9e-08,0.0,0.0,0.0,9e-08,0.0,0.0,0.0,9e-08
1560461218860579033,12326,1560461218856486336,base_link,0.0101836568681,0.000944006759308,0.386669012405,0.922161834357,1.0,0.0,0.0,0.0,1.0,0.0,0.0,0.0,1.0,0.000770252372604,0.000120404409245,-0.0015529274242,1.21846967915e-07,0.0,0.0,0.0,1.21846967915e-07,0.0,0.0,0.0,1.21846967915e-07,0.0452702865005,0.199344530702,9.86287879944,9e-08,0.0,0.0,0.0,9e-08,0.0,0.0,0.0,9e-08
1560461218876434915,12327,1560461218872483520,base_link,0.0101920338835,0.000944202676299,0.386679506971,0.922157408938,1.0,0.0,0.0,0.0,1.0,0.0,0.0,0.0,1.0,0.000127473875182,0.000217255437747,-0.0017600916326,1.21846967915e-07,0.0,0.0,0.0,1.21846967915e-07,0.0,0.0,0.0,1.21846967915e-07,0.0739580467343,0.162068128586,9.82059383392,9e-08,0.0,0.0,0.0,9e-08,0.0,0.0,0.0,9e-08
1560461218895407345,12328,1560461218892483520,base_link,0.0101990994075,0.00094469065778,0.386701655139,0.922148073411,1.0,0.0,0.0,0.0,1.0,0.0,0.0,0.0,1.0,-0.000276068225503,-0.000935031857807,-3.64142470062e-05,1.21846967915e-07,0.0,0.0,0.0,1.21846967915e-07,0.0,0.0,0.0,1.21846967915e-07,0.0706320405006,0.221584692597,9.82184886932,9e-08,0.0,0.0,0.0,9e-08,0.0,0.0,0.0,9e-08
1560461218915380676,12329,1560461218912483520,base_link,0.0101929420164,0.000943572449205,0.386719904725,0.922140529125,1.0,0.0,0.0,0.0,1.0,0.0,0.0,0.0,1.0,-0.000922227860428,-0.000411177868955,-0.000665674335323,1.21846967915e-07,0.0,0.0,0.0,1.21846967915e-07,0.0,0.0,0.0,1.21846967915e-07,0.0495070889592,0.186321765184,9.80465316772,9e-08,0.0,0.0,0.0,9e-08,0.0,0.0,0.0,9e-08
1560461218937329296,12330,1560461218932483520,base_link,0.0101943680945,0.000949607680349,0.386733223129,0.922134881447,1.0,0.0,0.0,0.0,1.0,0.0,0.0,0.0,1.0,0.000236571911955,-0.00030867481837,-0.0015422294382,1.21846967915e-07,0.0,0.0,0.0,1.21846967915e-07,0.0,0.0,0.0,1.21846967915e-07,0.0507479570806,0.163289174438,9.79401111603,9e-08,0.0,0.0,0.0,9e-08,0.0,0.0,0.0,9e-08
1560461218955377368,12331,1560461218952483520,base_link,0.0102041346388,0.000952603728588,0.386754991976,0.922125672361,1.0,0.0,0.0,0.0,1.0,0.0,0.0,0.0,1.0,0.000471914245281,-0.000524205388501,-0.000792591774371,1.21846967915e-07,0.0,0.0,0.0,1.21846967915e-07,0.0,0.0,0.0,1.21846967915e-07,0.0607849434018,0.213561087847,9.81858539581,9e-08,0.0,0.0,0.0,9e-08,0.0,0.0,0.0,9e-08
1560461218979554337,12332,1560461218976479680,base_link,0.0102079996366,0.000961926743187,0.386771113146,0.922118823498,1.0,0.0,0.0,0.0,1.0,0.0,0.0,0.0,1.0,-0.000179259150173,0.00107719283551,-0.0010054174345,1.21846967915e-07,0.0,0.0,0.0,1.21846967915e-07,0.0,0.0,0.0,1.21846967915e-07,0.0433264225721,0.197898522019,9.77247905731,9e-08,0.0,0.0,0.0,9e-08,0.0,0.0,0.0,9e-08
1560461218998782984,12333,1560461218996479680,base_link,0.0101922768864,0.000968616896844,0.386781270536,0.92211465096,1.0,0.0,0.0,0.0,1.0,0.0,0.0,0.0,1.0,-0.00145806965884,0.000541860470548,-0.000881923595443,1.21846967915e-07,0.0,0.0,0.0,1.21846967915e-07,0.0,0.0,0.0,1.21846967915e-07,0.0935903638601,0.217569500208,9.82517147064,9e-08,0.0,0.0,0.0,9e-08,0.0,0.0,0.0,9e-08
1560461219015356782,12334,1560461219012479680,base_link,0.0101853954256,0.000970494736508,0.386789257364,0.922111468873,1.0,0.0,0.0,0.0,1.0,0.0,0.0,0.0,1.0,0.000556323328055,0.000221723224968,-0.00153820775449,1.21846967915e-07,0.0,0.0,0.0,1.21846967915e-07,0.0,0.0,0.0,1.21846967915e-07,0.0446214713156,0.181402489543,9.80518722534,9e-08,0.0,0.0,0.0,9e-08,0.0,0.0,0.0,9e-08
1560461219036359825,12335,1560461219032479680,base_link,0.0101888797846,0.000970926083161,0.386796338035,0.9221084343,1.0,0.0,0.0,0.0,1.0,0.0,0.0,0.0,1.0,-0.000722991244402,-0.000628046458587,-0.00162283610553,1.21846967915e-07,0.0,0.0,0.0,1.21846967915e-07,0.0,0.0,0.0,1.21846967915e-07,0.0587730258703,0.220610201359,9.75412273407,9e-08,0.0,0.0,0.0,9e-08,0.0,0.0,0.0,9e-08
1560461219055465147,12336,1560461219052479680,base_link,0.0101950536394,0.00097042493079,0.386812922819,0.922101458996,1.0,0.0,0.0,0.0,1.0,0.0,0.0,0.0,1.0,0.0010982840322,0.000226637115702,-0.000801995920483,1.21846967915e-07,0.0,0.0,0.0,1.21846967915e-07,0.0,0.0,0.0,1.21846967915e-07,0.0787034630775,0.229471027851,9.81895160675,9e-08,0.0,0.0,0.0,9e-08,0.0,0.0,0.0,9e-08
1560461219076382051,12337,1560461219072477632,base_link,0.0101931715191,0.000968426906753,0.386825250773,0.922096211714,1.0,0.0,0.0,0.0,1.0,0.0,0.0,0.0,1.0,-0.00168267032132,6.84102997184e-06,-0.00225639995188,1.21846967915e-07,0.0,0.0,0.0,1.21846967915e-07,0.0,0.0,0.0,1.21846967915e-07,0.0830476656556,0.203910470009,9.75353717804,9e-08,0.0,0.0,0.0,9e-08,0.0,0.0,0.0,9e-08
1560461219095488055,12338,1560461219092477632,base_link,0.0101915139626,0.000966915547107,0.386832183929,0.922093324654,1.0,0.0,0.0,0.0,1.0,0.0,0.0,0.0,1.0,-0.000940591504332,0.000968675594777,-0.00204593432136,1.21846967915e-07,0.0,0.0,0.0,1.21846967915e-07,0.0,0.0,0.0,1.21846967915e-07,0.0405902676284,0.219139665365,9.76148223877,9e-08,0.0,0.0,0.0,9e-08,0.0,0.0,0.0,9e-08
1560461219116272553,12339,1560461219112477632,base_link,0.0101884625966,0.000961976134025,0.38684942199,0.922086117543,1.0,0.0,0.0,0.0,1.0,0.0,0.0,0.0,1.0,0.000774231506512,-0.000838976877276,-0.00143151346128,1.21846967915e-07,0.0,0.0,0.0,1.21846967915e-07,0.0,0.0,0.0,1.21846967915e-07,0.0541806668043,0.192315846682,9.80536174774,9e-08,0.0,0.0,0.0,9e-08,0.0,0.0,0.0,9e-08
1560461219137379125,12340,1560461219132477632,base_link,0.010181943006,0.000967513176248,0.386854964301,0.922083862687,1.0,0.0,0.0,0.0,1.0,0.0,0.0,0.0,1.0,-0.000301914522424,0.00149762933142,-0.0020606755279,1.21846967915e-07,0.0,0.0,0.0,1.21846967915e-07,0.0,0.0,0.0,1.21846967915e-07,0.0645178183913,0.155628591776,9.79257583618,9e-08,0.0,0.0,0.0,9e-08,0.0,0.0,0.0,9e-08
1560461219156093334,12341,1560461219152477632,base_link,0.0101907642097,0.000963731155139,0.386866301803,0.922079100093,1.0,0.0,0.0,0.0,1.0,0.0,0.0,0.0,1.0,0.00119626056403,-0.000521150359418,-0.00143036816735,1.21846967915e-07,0.0,0.0,0.0,1.21846967915e-07,0.0,0.0,0.0,1.21846967915e-07,0.0650114268064,0.162287190557,9.79392242432,9e-08,0.0,0.0,0.0,9e-08,0.0,0.0,0.0,9e-08
1560461219176312392,12342,1560461219172475584,base_link,0.0102046219618,0.000962301455012,0.386878376875,0.92207385281,1.0,0.0,0.0,0.0,1.0,0.0,0.0,0.0,1.0,0.000233899307204,-0.000840590917505,-0.00173296115827,1.21846967915e-07,0.0,0.0,0.0,1.21846967915e-07,0.0,0.0,0.0,1.21846967915e-07,0.063220590353,0.192529171705,9.76690196991,9e-08,0.0,0.0,0.0,9e-08,0.0,0.0,0.0,9e-08
1560461219196870949,12343,1560461219192475584,base_link,0.0101995600594,0.000960796351539,0.38688653229,0.922070417842,1.0,0.0,0.0,0.0,1.0,0.0,0.0,0.0,1.0,-0.000614202697761,0.000439280993305,-0.00161708891392,1.21846967915e-07,0.0,0.0,0.0,1.21846967915e-07,0.0,0.0,0.0,1.21846967915e-07,0.0906263366342,0.173844456673,9.82150745392,9e-08,0.0,0.0,0.0,9e-08,0.0,0.0,0.0,9e-08
1560461219216275542,12344,1560461219212475584,base_link,0.0101906308544,0.000965051207605,0.386891252737,0.922068479087,1.0,0.0,0.0,0.0,1.0,0.0,0.0,0.0,1.0,0.00161807180848,0.000117429415695,-0.00164521625265,1.21846967915e-07,0.0,0.0,0.0,1.21846967915e-07,0.0,0.0,0.0,1.21846967915e-07,0.0784518495202,0.166110962629,9.80508899689,9e-08,0.0,0.0,0.0,9e-08,0.0,0.0,0.0,9e-08
1560461219236347295,12345,1560461219232475584,base_link,0.0101951142254,0.000957409457135,0.386899766401,0.922065023046,1.0,0.0,0.0,0.0,1.0,0.0,0.0,0.0,1.0,-0.000189842699911,0.000542973168194,-0.00162198068574,1.21846967915e-07,0.0,0.0,0.0,1.21846967915e-07,0.0,0.0,0.0,1.21846967915e-07,0.0737624838948,0.176796942949,9.77724266052,9e-08,0.0,0.0,0.0,9e-08,0.0,0.0,0.0,9e-08
1560461219255690090,12346,1560461219252475584,base_link,0.010209497496,0.000950056807703,0.386902737754,0.922063484686,1.0,0.0,0.0,0.0,1.0,0.0,0.0,0.0,1.0,0.00107305112761,-0.000952082220465,-0.0026939609088,1.21846967915e-07,0.0,0.0,0.0,1.21846967915e-07,0.0,0.0,0.0,1.21846967915e-07,0.0661172270775,0.167450353503,9.8114824295,9e-08,0.0,0.0,0.0,9e-08,0.0,0.0,0.0,9e-08
1560461219276737034,12347,1560461219272473280,base_link,0.0102132452728,0.000946323518887,0.386913000511,0.922059206781,1.0,0.0,0.0,0.0,1.0,0.0,0.0,0.0,1.0,-0.000304487766698,-0.000950243033003,-0.00224743736908,1.21846967915e-07,0.0,0.0,0.0,1.21846967915e-07,0.0,0.0,0.0,1.21846967915e-07,0.0699178129435,0.21339738369,9.77443981171,9e-08,0.0,0.0,0.0,9e-08,0.0,0.0,0.0,9e-08
1560461219296062845,12348,1560461219292473280,base_link,0.0102083792875,0.000955999513343,0.386926487503,0.922053559103,1.0,0.0,0.0,0.0,1.0,0.0,0.0,0.0,1.0,0.000448238162789,0.00192483619321,-0.00194993242621,1.21846967915e-07,0.0,0.0,0.0,1.21846967915e-07,0.0,0.0,0.0,1.21846967915e-07,0.0642815455794,0.188974261284,9.79138755798,9e-08,0.0,0.0,0.0,9e-08,0.0,0.0,0.0,9e-08
1560461219317253907,12349,1560461219312473280,base_link,0.0102024642407,0.000955530629653,0.386938625795,0.922048585775,1.0,0.0,0.0,0.0,1.0,0.0,0.0,0.0,1.0,-0.000183910742635,-0.0022214341443,-0.00117696158122,1.21846967915e-07,0.0,0.0,0.0,1.21846967915e-07,0.0,0.0,0.0,1.21846967915e-07,0.0801210403442,0.158956870437,9.8255853653,9e-08,0.0,0.0,0.0,9e-08,0.0,0.0,0.0,9e-08
1560461219336507466,12350,1560461219332473280,base_link,0.0102059430021,0.000953018611628,0.386950068665,0.922043717814,1.0,0.0,0.0,0.0,1.0,0.0,0.0,0.0,1.0,0.000126694998471,0.00043530925177,-0.0018298602663,1.21846967915e-07,0.0,0.0,0.0,1.21846967915e-07,0.0,0.0,0.0,1.21846967915e-07,0.0464100167155,0.176720798016,9.76273441315,9e-08,0.0,0.0,0.0,9e-08,0.0,0.0,0.0,9e-08
1560461219356507288,12351,1560461219352473280,base_link,0.0102029097461,0.000956145380952,0.386961996223,0.922038702339,1.0,0.0,0.0,0.0,1.0,0.0,0.0,0.0,1.0,0.000128140542074,0.000547962379642,-0.00172173767351,1.21846967915e-07,0.0,0.0,0.0,1.21846967915e-07,0.0,0.0,0.0,1.21846967915e-07,0.0661743581295,0.13745200634,9.81636142731,9e-08,0.0,0.0,0.0,9e-08,0.0,0.0,0.0,9e-08
1560461219377554979,12352,1560461219372470976,base_link,0.0102063012503,0.000961649495949,0.386977042648,0.922032422458,1.0,0.0,0.0,0.0,1.0,0.0,0.0,0.0,1.0,0.0010861865012,-0.00137651490513,-0.00161585432943,1.21846967915e-07,0.0,0.0,0.0,1.21846967915e-07,0.0,0.0,0.0,1.21846967915e-07,0.0565415136516,0.196853011847,9.80250549316,9e-08,0.0,0.0,0.0,9e-08,0.0,0.0,0.0,9e-08
1560461219395816343,12353,1560461219392470976,base_link,0.0102005455713,0.000960514165218,0.38699693596,0.922024161676,1.0,0.0,0.0,0.0,1.0,0.0,0.0,0.0,1.0,-0.00154670909978,0.00118861766532,0.000323824468069,1.21846967915e-07,0.0,0.0,0.0,1.21846967915e-07,0.0,0.0,0.0,1.21846967915e-07,0.0522208064795,0.194045141339,9.80354499817,9e-08,0.0,0.0,0.0,9e-08,0.0,0.0,0.0,9e-08
1560461219417219174,12354,1560461219412470976,base_link,0.0101876199889,0.000964915547437,0.387014279388,0.922017017785,1.0,0.0,0.0,0.0,1.0,0.0,0.0,0.0,1.0,-0.000607780006249,0.00128420314286,-0.00117881875485,1.21846967915e-07,0.0,0.0,0.0,1.21846967915e-07,0.0,0.0,0.0,1.21846967915e-07,0.0599107146263,0.1893491745,9.80928611755,9e-08,0.0,0.0,0.0,9e-08,0.0,0.0,0.0,9e-08
1560461219436381117,12355,1560461219432470976,base_link,0.0101966427073,0.000965200697209,0.387026565195,0.922011728356,1.0,0.0,0.0,0.0,1.0,0.0,0.0,0.0,1.0,0.00225660251454,-0.000522003334481,-0.00173939019442,1.21846967915e-07,0.0,0.0,0.0,1.21846967915e-07,0.0,0.0,0.0,1.21846967915e-07,0.0482984036207,0.182592824101,9.79699420929,9e-08,0.0,0.0,0.0,9e-08,0.0,0.0,0.0,9e-08
1560461219455609668,12356,1560461219452470976,base_link,0.010212881427,0.00096662809243,0.387041548399,0.922005258814,1.0,0.0,0.0,0.0,1.0,0.0,0.0,0.0,1.0,0.00121384521481,-0.00104747829027,-0.000341849750839,1.21846967915e-07,0.0,0.0,0.0,1.21846967915e-07,0.0,0.0,0.0,1.21846967915e-07,0.0608685240149,0.147699430585,9.84548377991,9e-08,0.0,0.0,0.0,9e-08,0.0,0.0,0.0,9e-08
1560461219477494161,12357,1560461219472468672,base_link,0.0102097875849,0.000963611958583,0.387060661995,0.921997271987,1.0,0.0,0.0,0.0,1.0,0.0,0.0,0.0,1.0,-0.0031534768641,0.00139954907354,-0.000395244453102,1.21846967915e-07,0.0,0.0,0.0,1.21846967915e-07,0.0,0.0,0.0,1.21846967915e-07,0.0652414113283,0.197086766362,9.7457447052,9e-08,0.0,0.0,0.0,9e-08,0.0,0.0,0.0,9e-08
1560461219497063554,12358,1560461219492468672,base_link,0.0101914244006,0.000979635992824,0.387072147011,0.92199261476,1.0,0.0,0.0,0.0,1.0,0.0,0.0,0.0,1.0,-0.000198134061066,0.00181917555165,-0.0025624553673,1.21846967915e-07,0.0,0.0,0.0,1.21846967915e-07,0.0,0.0,0.0,1.21846967915e-07,0.0692819431424,0.158882141113,9.79393100739,9e-08,0.0,0.0,0.0,9e-08,0.0,0.0,0.0,9e-08
1560461219516600116,12359,1560461219512468672,base_link,0.0101960733955,0.000983341293498,0.387086856261,0.921986419173,1.0,0.0,0.0,0.0,1.0,0.0,0.0,0.0,1.0,0.00237164180726,-0.00158327398822,-0.00109083612915,1.21846967915e-07,0.0,0.0,0.0,1.21846967915e-07,0.0,0.0,0.0,1.21846967915e-07,0.0693372860551,0.162945598364,9.76809310913,9e-08,0.0,0.0,0.0,9e-08,0.0,0.0,0.0,9e-08
1560461219538468056,12360,1560461219534468672,base_link,0.0102134194579,0.000975579687927,0.387095517439,0.921982562737,1.0,0.0,0.0,0.0,1.0,0.0,0.0,0.0,1.0,0.000660644378513,-0.00147919240408,-0.00170484022237,1.21846967915e-07,0.0,0.0,0.0,1.21846967915e-07,0.0,0.0,0.0,1.21846967915e-07,0.0868332311511,0.246296495199,9.79121494293,9e-08,0.0,0.0,0.0,9e-08,0.0,0.0,0.0,9e-08
1560461219557433691,12361,1560461219554468672,base_link,0.0102150134648,0.000983732139663,0.387109699853,0.921976556811,1.0,0.0,0.0,0.0,1.0,0.0,0.0,0.0,1.0,0.000673450587783,0.00128620734904,-0.00139883032534,1.21846967915e-07,0.0,0.0,0.0,1.21846967915e-07,0.0,0.0,0.0,1.21846967915e-07,0.039127536118,0.19078168273,9.78553295135,9e-08,0.0,0.0,0.0,9e-08,0.0,0.0,0.0,9e-08
1560461219577291124,12362,1560461219574466368,base_link,0.0102126690464,0.000987817749791,0.387131363333,0.921967537385,1.0,0.0,0.0,0.0,1.0,0.0,0.0,0.0,1.0,-0.000284014677163,0.000975642236881,-0.000528645934537,1.21846967915e-07,0.0,0.0,0.0,1.21846967915e-07,0.0,0.0,0.0,1.21846967915e-07,0.0410446971655,0.174416229129,9.78925514221,9e-08,0.0,0.0,0.0,9e-08,0.0,0.0,0.0,9e-08
1560461219597329846,12363,1560461219594466368,base_link,0.0102183486635,0.000989606027402,0.387146620493,0.921961131064,1.0,0.0,0.0,0.0,1.0,0.0,0.0,0.0,1.0,0.0017134466907,-0.000419864547439,-0.00256926240399,1.21846967915e-07,0.0,0.0,0.0,1.21846967915e-07,0.0,0.0,0.0,1.21846967915e-07,0.0431339852512,0.205269932747,9.76690196991,9e-08,0.0,0.0,0.0,9e-08,0.0,0.0,0.0,9e-08
1560461219617315214,12364,1560461219614466368,base_link,0.0102099897581,0.000992463452022,0.387161119008,0.921954977624,1.0,0.0,0.0,0.0,1.0,0.0,0.0,0.0,1.0,-0.000603600870818,0.000448148697615,-0.000735453562811,1.21846967915e-07,0.0,0.0,0.0,1.21846967915e-07,0.0,0.0,0.0,1.21846967915e-07,0.109053231776,0.203275769949,9.75091171265,9e-08,0.0,0.0,0.0,9e-08,0.0,0.0,0.0,9e-08
1560461219638342803,12365,1560461219634466368,base_link,0.0102030263084,0.000993629075801,0.387176060066,0.921948887405,1.0,0.0,0.0,0.0,1.0,0.0,0.0,0.0,1.0,-0.000511275662575,-0.00114181346726,-0.0017956669908,1.21846967915e-07,0.0,0.0,0.0,1.21846967915e-07,0.0,0.0,0.0,1.21846967915e-07,0.058785058558,0.210532143712,9.75492763519,9e-08,0.0,0.0,0.0,9e-08,0.0,0.0,0.0,9e-08
1560461219656700224,12366,1560461219654466368,base_link,0.0102193420779,0.000984442709187,0.38719152796,0.921942186056,1.0,0.0,0.0,0.0,1.0,0.0,0.0,0.0,1.0,0.00236950651743,-0.00222142087296,-0.00118080351967,1.21846967915e-07,0.0,0.0,0.0,1.21846967915e-07,0.0,0.0,0.0,1.21846967915e-07,0.0513647943735,0.176958113909,9.81087493896,9e-08,0.0,0.0,0.0,9e-08,0.0,0.0,0.0,9e-08
1560461219678352029,12367,1560461219674464064,base_link,0.0102296051648,0.000979353147957,0.387210030426,0.921934304595,1.0,0.0,0.0,0.0,1.0,0.0,0.0,0.0,1.0,0.000347179651726,-0.0017973317299,-0.0012612772407,1.21846967915e-07,0.0,0.0,0.0,1.21846967915e-07,0.0,0.0,0.0,1.21846967915e-07,0.09190069139,0.21675118804,9.77993488312,9e-08,0.0,0.0,0.0,9e-08,0.0,0.0,0.0,9e-08
1560461219697177401,12368,1560461219694464064,base_link,0.0102131333203,0.000983184889177,0.387218017254,0.921931122508,1.0,0.0,0.0,0.0,1.0,0.0,0.0,0.0,1.0,-0.00221574213356,0.000536203966476,-0.00208699447103,1.21846967915e-07,0.0,0.0,0.0,1.21846967915e-07,0.0,0.0,0.0,1.21846967915e-07,0.0543371513486,0.199105754495,9.79087543488,9e-08,0.0,0.0,0.0,9e-08,0.0,0.0,0.0,9e-08
1560461219715602893,12369,1560461219710464064,base_link,0.0101947493918,0.000996723247172,0.387221157194,0.921929921323,1.0,0.0,0.0,0.0,1.0,0.0,0.0,0.0,1.0,0.000352207134711,0.00298810144886,-0.00116987316869,1.21846967915e-07,0.0,0.0,0.0,1.21846967915e-07,0.0,0.0,0.0,1.21846967915e-07,0.0322451815009,0.17058584094,9.82376861572,9e-08,0.0,0.0,0.0,9e-08,0.0,0.0,0.0,9e-08
1560461219737358749,12370,1560461219734464064,base_link,0.0102184793846,0.000997963945025,0.38724962739,0.921917804104,1.0,0.0,0.0,0.0,1.0,0.0,0.0,0.0,1.0,0.0023757845629,-0.00200482644141,-0.000643262639642,1.21846967915e-07,0.0,0.0,0.0,1.21846967915e-07,0.0,0.0,0.0,1.21846967915e-07,0.0526806339622,0.208244547248,9.74331378937,9e-08,0.0,0.0,0.0,9e-08,0.0,0.0,0.0,9e-08
1560461219757286720,12371,1560461219754464064,base_link,0.0102389854728,0.00100626127655,0.387265053137,0.921911060608,1.0,0.0,0.0,0.0,1.0,0.0,0.0,0.0,1.0,0.00394699396566,6.76012132317e-06,-0.00269363471307,1.21846967915e-07,0.0,0.0,0.0,1.21846967915e-07,0.0,0.0,0.0,1.21846967915e-07,0.0643001943827,0.208762139082,9.75592136383,9e-08,0.0,0.0,0.0,9e-08,0.0,0.0,0.0,9e-08
1560461219776876550,12372,1560461219774462272,base_link,0.0102683391064,0.00100414636087,0.38728587368,0.921901956889,1.0,0.0,0.0,0.0,1.0,0.0,0.0,0.0,1.0,-6.13674710621e-05,-0.000724716577679,-7.90590420365e-05,1.21846967915e-07,0.0,0.0,0.0,1.21846967915e-07,0.0,0.0,0.0,1.21846967915e-07,0.0677312389016,0.200088307261,9.83557224274,9e-08,0.0,0.0,0.0,9e-08,0.0,0.0,0.0,9e-08
1560461219796802732,12373,1560461219794462272,base_link,0.0102387796776,0.00100504593266,0.387298686322,0.921896899267,1.0,0.0,0.0,0.0,1.0,0.0,0.0,0.0,1.0,-0.0047755795531,0.00245502637699,-0.00194297195412,1.21846967915e-07,0.0,0.0,0.0,1.21846967915e-07,0.0,0.0,0.0,1.21846967915e-07,0.0700492709875,0.199930042028,9.79487419128,9e-08,0.0,0.0,0.0,9e-08,0.0,0.0,0.0,9e-08
1560461219818049599,12374,1560461219814462272,base_link,0.0101699499227,0.00100328235047,0.387304818688,0.921895065879,1.0,0.0,0.0,0.0,1.0,0.0,0.0,0.0,1.0,-0.00626591453329,0.00362634542398,-0.00235726218671,1.21846967915e-07,0.0,0.0,0.0,1.21846967915e-07,0.0,0.0,0.0,1.21846967915e-07,0.0585807822645,0.142649397254,9.75624465942,9e-08,0.0,0.0,0.0,9e-08,0.0,0.0,0.0,9e-08
1560461219838067286,12375,1560461219834462272,base_link,0.0101270513456,0.000986261279846,0.387324985955,0.921887121198,1.0,0.0,0.0,0.0,1.0,0.0,0.0,0.0,1.0,-0.00496343756095,-0.0015780570684,-0.000433898414485,1.21846967915e-07,0.0,0.0,0.0,1.21846967915e-07,0.0,0.0,0.0,1.21846967915e-07,0.0953953564167,0.154821455479,9.80014038086,9e-08,0.0,0.0,0.0,9e-08,0.0,0.0,0.0,9e-08
1560461219857056014,12376,1560461219854462272,base_link,0.0100648933052,0.000976882947508,0.387336871367,0.92188282222,1.0,0.0,0.0,0.0,1.0,0.0,0.0,0.0,1.0,-0.00487023917958,0.0044821659103,-0.001312828972,1.21846967915e-07,0.0,0.0,0.0,1.21846967915e-07,0.0,0.0,0.0,1.21846967915e-07,0.0497704334557,0.191879585385,9.70199108124,9e-08,0.0,0.0,0.0,9e-08,0.0,0.0,0.0,9e-08
1560461219878776298,12377,1560461219875458688,base_link,0.0100497415131,0.00100154807351,0.387337440349,0.921882674706,1.0,0.0,0.0,0.0,1.0,0.0,0.0,0.0,1.0,0.00500074401498,0.000458023045212,-0.00209876871668,1.21846967915e-07,0.0,0.0,0.0,1.21846967915e-07,0.0,0.0,0.0,1.21846967915e-07,0.0552159436047,0.0955944508314,9.7404718399,9e-08,0.0,0.0,0.0,9e-08,0.0,0.0,0.0,9e-08
1560461219899580436,12378,1560461219896458688,base_link,0.0102129591353,0.00100896987011,0.387362054109,0.921870620707,1.0,0.0,0.0,0.0,1.0,0.0,0.0,0.0,1.0,0.0211129877716,-0.01283542905,0.00108451163396,1.21846967915e-07,0.0,0.0,0.0,1.21846967915e-07,0.0,0.0,0.0,1.21846967915e-07,0.0245415009558,0.169247940183,9.842918396,9e-08,0.0,0.0,0.0,9e-08,0.0,0.0,0.0,9e-08
1560461219915794810,12379,1560461219912458688,base_link,0.0103622814683,0.000949116076873,0.387395413339,0.921855047446,1.0,0.0,0.0,0.0,1.0,0.0,0.0,0.0,1.0,0.00655581708997,-0.00921925902367,0.00200839992613,1.21846967915e-07,0.0,0.0,0.0,1.21846967915e-07,0.0,0.0,0.0,1.21846967915e-07,0.168029785156,0.299965053797,9.91713809967,9e-08,0.0,0.0,0.0,9e-08,0.0,0.0,0.0,9e-08
1560461219935560456,12380,1560461219932458688,base_link,0.010237934765,0.000994769345617,0.387394317521,0.92185673332,1.0,0.0,0.0,0.0,1.0,0.0,0.0,0.0,1.0,-0.0124041680247,0.0159456524998,-0.00753819895908,1.21846967915e-07,0.0,0.0,0.0,1.21846967915e-07,0.0,0.0,0.0,1.21846967915e-07,0.0830507874489,0.252331972122,9.70954608917,9e-08,0.0,0.0,0.0,9e-08,0.0,0.0,0.0,9e-08
1560461219959860750,12381,1560461219956458688,base_link,0.0101768722133,0.00104023492918,0.387383780809,0.921861875236,1.0,0.0,0.0,0.0,1.0,0.0,0.0,0.0,1.0,0.0068674730137,-0.00486949365586,0.00081687362399,1.21846967915e-07,0.0,0.0,0.0,1.21846967915e-07,0.0,0.0,0.0,1.21846967915e-07,-0.00712729245424,0.0295189842582,9.86578941345,9e-08,0.0,0.0,0.0,9e-08,0.0,0.0,0.0,9e-08
1560461219977470635,12382,1560461219972459968,base_link,0.0103010825979,0.000977789434023,0.387432165391,0.921840211756,1.0,0.0,0.0,0.0,1.0,0.0,0.0,0.0,1.0,0.0120025696233,-0.0136949745938,0.00270979944617,1.21846967915e-07,0.0,0.0,0.0,1.21846967915e-07,0.0,0.0,0.0,1.21846967915e-07,0.0981035530567,0.261277675629,9.78632640839,9e-08,0.0,0.0,0.0,9e-08,0.0,0.0,0.0,9e-08
1560461219999077627,12383,1560461219996459968,base_link,0.0102964342615,0.000980833556011,0.387434167367,0.921839305598,1.0,0.0,0.0,0.0,1.0,0.0,0.0,0.0,1.0,-0.0111147640273,0.0126523030922,-0.00668501760811,1.21846967915e-07,0.0,0.0,0.0,1.21846967915e-07,0.0,0.0,0.0,1.21846967915e-07,0.0818157494068,0.268702089787,9.85394001007,9e-08,0.0,0.0,0.0,9e-08,0.0,0.0,0.0,9e-08
1560461220018766258,12384,1560461220016459968,base_link,0.0101382745904,0.00103791981596,0.387423967829,0.921845290451,1.0,0.0,0.0,0.0,1.0,0.0,0.0,0.0,1.0,-0.00624804245308,0.00405760435387,-0.00106979464181,1.21846967915e-07,0.0,0.0,0.0,1.21846967915e-07,0.0,0.0,0.0,1.21846967915e-07,0.0126574635506,0.0637342557311,9.74458408356,9e-08,0.0,0.0,0.0,9e-08,0.0,0.0,0.0,9e-08
1560461220036343746,12385,1560461220032459968,base_link,0.0101810500197,0.00101830276288,0.387440615834,0.921837999046,1.0,0.0,0.0,0.0,1.0,0.0,0.0,0.0,1.0,0.00866238493472,-0.00924122706056,-0.000347740540747,1.21846967915e-07,0.0,0.0,0.0,1.21846967915e-07,0.0,0.0,0.0,1.21846967915e-07,0.0115195922554,0.114358775318,9.6915435791,9e-08,0.0,0.0,0.0,9e-08,0.0,0.0,0.0,9e-08
1560461220060506483,12386,1560461220056459968,base_link,0.0103249729462,0.00097214867104,0.38747203631,0.921823100135,1.0,0.0,0.0,0.0,1.0,0.0,0.0,0.0,1.0,0.00335612427443,-0.00223320559599,-0.000432304514106,1.21846967915e-07,0.0,0.0,0.0,1.21846967915e-07,0.0,0.0,0.0,1.21846967915e-07,0.102578818798,0.267060786486,9.87620258331,9e-08,0.0,0.0,0.0,9e-08,0.0,0.0,0.0,9e-08
1560461220075433560,12387,1560461220072457408,base_link,0.0102757648543,0.0009909043479,0.387478484778,0.921820950646,1.0,0.0,0.0,0.0,1.0,0.0,0.0,0.0,1.0,-0.00786542519927,0.00797879043967,-0.0027652787976,1.21846967915e-07,0.0,0.0,0.0,1.21846967915e-07,0.0,0.0,0.0,1.21846967915e-07,0.0828979983926,0.214181810617,9.77057170868,9e-08,0.0,0.0,0.0,9e-08,0.0,0.0,0.0,9e-08
1560461220098557155,12388,1560461220096457408,base_link,0.0101918899915,0.00102119871236,0.387473005687,0.9218242381,1.0,0.0,0.0,0.0,1.0,0.0,0.0,0.0,1.0,-0.000739733979572,0.000111917848699,-0.00271852873266,1.21846967915e-07,0.0,0.0,0.0,1.21846967915e-07,0.0,0.0,0.0,1.21846967915e-07,0.0301923714578,0.112232491374,9.82456588745,9e-08,0.0,0.0,0.0,9e-08,0.0,0.0,0.0,9e-08
1560461220115684346,12389,1560461220112457408,base_link,0.0102443032197,0.00100017698384,0.387496460409,0.921813848902,1.0,0.0,0.0,0.0,1.0,0.0,0.0,0.0,1.0,0.00656964769587,-0.00582623993978,0.00243045575917,1.21846967915e-07,0.0,0.0,0.0,1.21846967915e-07,0.0,0.0,0.0,1.21846967915e-07,0.0554639659822,0.175461754203,9.75651741028,9e-08,0.0,0.0,0.0,9e-08,0.0,0.0,0.0,9e-08
1560461220140133747,12390,1560461220136457408,base_link,0.0103012880637,0.000979371257931,0.387523307951,0.92180183705,1.0,0.0,0.0,0.0,1.0,0.0,0.0,0.0,1.0,-0.000210501631955,0.0016085463576,-0.00357913272455,1.21846967915e-07,0.0,0.0,0.0,1.21846967915e-07,0.0,0.0,0.0,1.21846967915e-07,0.0930112302303,0.26079288125,9.81416511536,9e-08,0.0,0.0,0.0,9e-08,0.0,0.0,0.0,9e-08
1560461220155631020,12391,1560461220152457408,base_link,0.0102607967961,0.00100895571141,0.387521917105,0.921802890721,1.0,0.0,0.0,0.0,1.0,0.0,0.0,0.0,1.0,-0.00383768370375,0.00383872585371,-0.00311829941347,1.21846967915e-07,0.0,0.0,0.0,1.21846967915e-07,0.0,0.0,0.0,1.21846967915e-07,0.0382730551064,0.154971793294,9.79402828217,9e-08,0.0,0.0,0.0,9e-08,0.0,0.0,0.0,9e-08
1560461220179419944,12392,1560461220176454336,base_link,0.0102861445035,0.00100568768429,0.387545645781,0.921792649037,1.0,0.0,0.0,0.0,1.0,0.0,0.0,0.0,1.0,0.00450707599521,-0.00339256320149,-0.000835883780383,1.21846967915e-07,0.0,0.0,0.0,1.21846967915e-07,0.0,0.0,0.0,1.21846967915e-07,0.0720212683082,0.234819829464,9.82071971893,9e-08,0.0,0.0,0.0,9e-08,0.0,0.0,0.0,9e-08
1560461220198851018,12393,1560461220196454336,base_link,0.0103252897062,0.00099410652057,0.38756404288,0.921784535769,1.0,0.0,0.0,0.0,1.0,0.0,0.0,0.0,1.0,0.00119921832811,-0.000948490109295,-0.00123681803234,1.21846967915e-07,0.0,0.0,0.0,1.21846967915e-07,0.0,0.0,0.0,1.21846967915e-07,0.0831148251891,0.194346994162,9.82750797272,9e-08,0.0,0.0,0.0,9e-08,0.0,0.0,0.0,9e-08
1560461220219983610,12394,1560461220216454336,base_link,0.0102926746309,0.00101566990194,0.387564801524,0.921784451475,1.0,0.0,0.0,0.0,1.0,0.0,0.0,0.0,1.0,-0.00381755782291,0.00277409958653,-0.0021459995769,1.21846967915e-07,0.0,0.0,0.0,1.21846967915e-07,0.0,0.0,0.0,1.21846967915e-07,0.0440931245685,0.156053066254,9.79369544983,9e-08,0.0,0.0,0.0,9e-08,0.0,0.0,0.0,9e-08
1560461220236442067,12395,1560461220232454336,base_link,0.0102784105568,0.00101795505138,0.387576391907,0.921779857469,1.0,0.0,0.0,0.0,1.0,0.0,0.0,0.0,1.0,0.000143212353578,-0.000830524251796,-0.000275149650406,1.21846967915e-07,0.0,0.0,0.0,1.21846967915e-07,0.0,0.0,0.0,1.21846967915e-07,0.054807856679,0.185161530972,9.77880382538,9e-08,0.0,0.0,0.0,9e-08,0.0,0.0,0.0,9e-08
1560461220256417633,12396,1560461220252454336,base_link,0.0103189466055,0.000999518439336,0.387598792957,0.921769847592,1.0,0.0,0.0,0.0,1.0,0.0,0.0,0.0,1.0,0.00396242691204,-0.00297174602747,-0.001149900374,1.21846967915e-07,0.0,0.0,0.0,1.21846967915e-07,0.0,0.0,0.0,1.21846967915e-07,0.0737501010299,0.190621078014,9.76646709442,9e-08,0.0,0.0,0.0,9e-08,0.0,0.0,0.0,9e-08
1560461220275954461,12397,1560461220272452544,base_link,0.0103396904282,0.000995364669852,0.387608339218,0.921765696128,1.0,0.0,0.0,0.0,1.0,0.0,0.0,0.0,1.0,-0.00243147625588,0.00192370044533,-0.00141275802162,1.21846967915e-07,0.0,0.0,0.0,1.21846967915e-07,0.0,0.0,0.0,1.21846967915e-07,0.0657100528479,0.213267982006,9.80467987061,9e-08,0.0,0.0,0.0,9e-08,0.0,0.0,0.0,9e-08
1560461220295446666,12398,1560461220292452544,base_link,0.0103149288254,0.00101092113749,0.387612195655,0.921764368502,1.0,0.0,0.0,0.0,1.0,0.0,0.0,0.0,1.0,-0.00137271522544,0.00341705838218,-0.00238942471333,1.21846967915e-07,0.0,0.0,0.0,1.21846967915e-07,0.0,0.0,0.0,1.21846967915e-07,0.049105387181,0.191656529903,9.77439880371,9e-08,0.0,0.0,0.0,9e-08,0.0,0.0,0.0,9e-08
1560461220316855179,12399,1560461220312452544,base_link,0.0103106351152,0.00100939989968,0.387625851234,0.92175863653,1.0,0.0,0.0,0.0,1.0,0.0,0.0,0.0,1.0,0.00173248280771,-0.00137342314702,-0.00112725771032,1.21846967915e-07,0.0,0.0,0.0,1.21846967915e-07,0.0,0.0,0.0,1.21846967915e-07,0.0268043801188,0.171279430389,9.78563594818,9e-08,0.0,0.0,0.0,9e-08,0.0,0.0,0.0,9e-08
1560461220336093814,12400,1560461220332452544,base_link,0.0103307661623,0.00100010454395,0.387652677703,0.92174706722,1.0,0.0,0.0,0.0,1.0,0.0,0.0,0.0,1.0,0.00258836545981,-9.52780246735e-05,-0.000824022281449,1.21846967915e-07,0.0,0.0,0.0,1.21846967915e-07,0.0,0.0,0.0,1.21846967915e-07,0.112264513969,0.236457556486,9.80131435394,9e-08,0.0,0.0,0.0,9e-08,0.0,0.0,0.0,9e-08
1560461220356043320,12401,1560461220352452544,base_link,0.0103330131161,0.00100321287403,0.38766220289,0.921743105417,1.0,0.0,0.0,0.0,1.0,0.0,0.0,0.0,1.0,-0.0010422776686,0.00181886437349,-0.00173888914287,1.21846967915e-07,0.0,0.0,0.0,1.21846967915e-07,0.0,0.0,0.0,1.21846967915e-07,0.0711009800434,0.199461445212,9.81846523285,9e-08,0.0,0.0,0.0,9e-08,0.0,0.0,0.0,9e-08
1560461220376069315,12402,1560461220372450496,base_link,0.0103207434441,0.00101642689885,0.387666796897,0.921741293102,1.0,0.0,0.0,0.0,1.0,0.0,0.0,0.0,1.0,0.00150042248424,0.00170810078271,-0.002729925327,1.21846967915e-07,0.0,0.0,0.0,1.21846967915e-07,0.0,0.0,0.0,1.21846967915e-07,0.0754621699452,0.172017306089,9.75469207764,9e-08,0.0,0.0,0.0,9e-08,0.0,0.0,0.0,9e-08
1560461220395975803,12403,1560461220392450496,base_link,0.0103529841369,0.00101852403384,0.3876797992,0.921735455764,1.0,0.0,0.0,0.0,1.0,0.0,0.0,0.0,1.0,0.00440467055887,-0.00233336910605,-0.000299160077702,1.21846967915e-07,0.0,0.0,0.0,1.21846967915e-07,0.0,0.0,0.0,1.21846967915e-07,0.0428678840399,0.161247208714,9.78780078888,9e-08,0.0,0.0,0.0,9e-08,0.0,0.0,0.0,9e-08
1560461220415584621,12404,1560461220412450496,base_link,0.0103744174557,0.00101304593135,0.387699207823,0.921727005321,1.0,0.0,0.0,0.0,1.0,0.0,0.0,0.0,1.0,-0.00145820912439,0.00149815005716,-0.000658124510664,1.21846967915e-07,0.0,0.0,0.0,1.21846967915e-07,0.0,0.0,0.0,1.21846967915e-07,0.0856230184436,0.195121735334,9.84091949463,9e-08,0.0,0.0,0.0,9e-08,0.0,0.0,0.0,9e-08
1560461220436892771,12405,1560461220432450496,base_link,0.0103466956954,0.001023786463,0.387697627317,0.921727995772,1.0,0.0,0.0,0.0,1.0,0.0,0.0,0.0,1.0,-0.00309391412884,0.00276265712455,-0.00362517545,1.21846967915e-07,0.0,0.0,0.0,1.21846967915e-07,0.0,0.0,0.0,1.21846967915e-07,0.0619223713875,0.194398596883,9.78094387054,9e-08,0.0,0.0,0.0,9e-08,0.0,0.0,0.0,9e-08
1560461220455655131,12406,1560461220452450496,base_link,0.0103301431792,0.00102289545228,0.387713305944,0.921721505157,1.0,0.0,0.0,0.0,1.0,0.0,0.0,0.0,1.0,0.000145401136251,-0.00168632250279,-0.000452200707514,1.21846967915e-07,0.0,0.0,0.0,1.21846967915e-07,0.0,0.0,0.0,1.21846967915e-07,0.0537981837988,0.150987505913,9.85152244568,9e-08,0.0,0.0,0.0,9e-08,0.0,0.0,0.0,9e-08
1560461220475850485,12407,1560461220472448448,base_link,0.010339676928,0.00100667220833,0.387732588127,0.921713349742,1.0,0.0,0.0,0.0,1.0,0.0,0.0,0.0,1.0,-0.000172553569428,-0.00158659869339,-0.000235908431932,1.21846967915e-07,0.0,0.0,0.0,1.21846967915e-07,0.0,0.0,0.0,1.21846967915e-07,0.0622615851462,0.206870555878,9.80281543732,9e-08,0.0,0.0,0.0,9e-08,0.0,0.0,0.0,9e-08
1560461220495750887,12408,1560461220492448448,base_link,0.0103137918483,0.00100974003792,0.387748582856,0.921706964494,1.0,0.0,0.0,0.0,1.0,0.0,0.0,0.0,1.0,-0.00392307434231,0.00415306119248,-0.0023427484557,1.21846967915e-07,0.0,0.0,0.0,1.21846967915e-07,0.0,0.0,0.0,1.21846967915e-07,0.0535389706492,0.216528773308,9.83747959137,9e-08,0.0,0.0,0.0,9e-08,0.0,0.0,0.0,9e-08
1560461220516069666,12409,1560461220512448448,base_link,0.0102752159574,0.00101772521935,0.387749193986,0.921707112008,1.0,0.0,0.0,0.0,1.0,0.0,0.0,0.0,1.0,-0.00263747968711,0.00107240618672,-0.00148681737483,1.21846967915e-07,0.0,0.0,0.0,1.21846967915e-07,0.0,0.0,0.0,1.21846967915e-07,0.0533240884542,0.152911454439,9.75713920593,9e-08,0.0,0.0,0.0,9e-08,0.0,0.0,0.0,9e-08
1560461220537169101,12410,1560461220532448448,base_link,0.0102804592888,0.00100843974179,0.387768181141,0.92169899874,1.0,0.0,0.0,0.0,1.0,0.0,0.0,0.0,1.0,0.00175369624048,-0.00136511074379,0.000695225549862,1.21846967915e-07,0.0,0.0,0.0,1.21846967915e-07,0.0,0.0,0.0,1.21846967915e-07,0.0574304126203,0.186033368111,9.80080509186,9e-08,0.0,0.0,0.0,9e-08,0.0,0.0,0.0,9e-08
1560461220556149168,12411,1560461220552448448,base_link,0.0102969209258,0.000998451597233,0.387780445874,0.921693730384,1.0,0.0,0.0,0.0,1.0,0.0,0.0,0.0,1.0,2.68996373052e-05,-8.69889045134e-05,-0.00109490135219,1.21846967915e-07,0.0,0.0,0.0,1.21846967915e-07,0.0,0.0,0.0,1.21846967915e-07,0.101605221629,0.197836652398,9.8232383728,9e-08,0.0,0.0,0.0,9e-08,0.0,0.0,0.0,9e-08
1560461220576146840,12412,1560461220572446400,base_link,0.0102855313986,0.000998614257727,0.387786936489,0.921691201573,1.0,0.0,0.0,0.0,1.0,0.0,0.0,0.0,1.0,-0.00105492025614,-0.000210070749745,-0.00267002964392,1.21846967915e-07,0.0,0.0,0.0,1.21846967915e-07,0.0,0.0,0.0,1.21846967915e-07,0.0956278890371,0.185519963503,9.80832386017,9e-08,0.0,0.0,0.0,9e-08,0.0,0.0,0.0,9e-08
1560461220596957339,12413,1560461220592446400,base_link,0.0102605432565,0.000998838492132,0.387799032634,0.921686270391,1.0,0.0,0.0,0.0,1.0,0.0,0.0,0.0,1.0,-0.00145949132275,0.00288339680992,-0.00108098157216,1.21846967915e-07,0.0,0.0,0.0,1.21846967915e-07,0.0,0.0,0.0,1.21846967915e-07,0.0375356636941,0.195805102587,9.77460670471,9e-08,0.0,0.0,0.0,9e-08,0.0,0.0,0.0,9e-08
1560461220616155926,12414,1560461220612446400,base_link,0.0102581678865,0.000992484196174,0.387809211098,0.921682161074,1.0,0.0,0.0,0.0,1.0,0.0,0.0,0.0,1.0,-0.000182176270755,-0.0024376809597,-0.00107007613406,1.21846967915e-07,0.0,0.0,0.0,1.21846967915e-07,0.0,0.0,0.0,1.21846967915e-07,0.0800395831466,0.168913885951,9.8180398941,9e-08,0.0,0.0,0.0,9e-08,0.0,0.0,0.0,9e-08
1560461220636693555,12415,1560461220632446400,base_link,0.0102556054898,0.000992669247181,0.387821433684,0.921677019158,1.0,0.0,0.0,0.0,1.0,0.0,0.0,0.0,1.0,-0.00178737740498,0.00181797496043,-0.00181576563045,1.21846967915e-07,0.0,0.0,0.0,1.21846967915e-07,0.0,0.0,0.0,1.21846967915e-07,0.0688813850284,0.201662302017,9.80009365082,9e-08,0.0,0.0,0.0,9e-08,0.0,0.0,0.0,9e-08
1560461220655291786,12416,1560461220652446400,base_link,0.0102705132911,0.000991714686917,0.387829104411,0.921673563117,1.0,0.0,0.0,0.0,1.0,0.0,0.0,0.0,1.0,0.00277124973945,-0.00276235467754,-0.00291106011719,1.21846967915e-07,0.0,0.0,0.0,1.21846967915e-07,0.0,0.0,0.0,1.21846967915e-07,0.0238251909614,0.167548149824,9.82120037079,9e-08,0.0,0.0,0.0,9e-08,0.0,0.0,0.0,9e-08
1560461220676494996,12417,1560461220672444352,base_link,0.0102995909946,0.000976931350529,0.387855846586,0.921661993807,1.0,0.0,0.0,0.0,1.0,0.0,0.0,0.0,1.0,0.000581955770031,-0.00158379343338,-1.39153562486e-05,1.21846967915e-07,0.0,0.0,0.0,1.21846967915e-07,0.0,0.0,0.0,1.21846967915e-07,0.0737866535783,0.204403683543,9.77768421173,9e-08,0.0,0.0,0.0,9e-08,0.0,0.0,0.0,9e-08
1560461220696142655,12418,1560461220692444352,base_link,0.010288393433,0.000983854958214,0.387867647703,0.921657104772,1.0,0.0,0.0,0.0,1.0,0.0,0.0,0.0,1.0,-0.00222837878391,0.00255508464761,-0.00287084328011,1.21846967915e-07,0.0,0.0,0.0,1.21846967915e-07,0.0,0.0,0.0,1.21846967915e-07,0.0906207412481,0.234396755695,9.78965377808,9e-08,0.0,0.0,0.0,9e-08,0.0,0.0,0.0,9e-08
1560461220717367365,12419,1560461220714444352,base_link,0.0102701362743,0.00100294188296,0.387881640457,0.921651541388,1.0,0.0,0.0,0.0,1.0,0.0,0.0,0.0,1.0,0.00185394787695,-0.000943892868236,-0.000139936688356,1.21846967915e-07,0.0,0.0,0.0,1.21846967915e-07,0.0,0.0,0.0,1.21846967915e-07,0.0223445370793,0.179876580834,9.81440353394,9e-08,0.0,0.0,0.0,9e-08,0.0,0.0,0.0,9e-08
1560461220738213044,12420,1560461220734444352,base_link,0.0102962916866,0.000976961643577,0.387910658562,0.921639044848,1.0,0.0,0.0,0.0,1.0,0.0,0.0,0.0,1.0,0.000271945697023,-0.00317276967689,0.00106384512037,1.21846967915e-07,0.0,0.0,0.0,1.21846967915e-07,0.0,0.0,0.0,1.21846967915e-07,0.062386572361,0.23244279623,9.7800617218,9e-08,0.0,0.0,0.0,9e-08,0.0,0.0,0.0,9e-08
1560461220756943726,12421,1560461220754444352,base_link,0.0102913065046,0.000990482879415,0.387924482729,0.921633228583,1.0,0.0,0.0,0.0,1.0,0.0,0.0,0.0,1.0,-0.000207845529076,0.00202329619788,-0.00278479862027,1.21846967915e-07,0.0,0.0,0.0,1.21846967915e-07,0.0,0.0,0.0,1.21846967915e-07,0.0872371271253,0.184524789453,9.7858953476,9e-08,0.0,0.0,0.0,9e-08,0.0,0.0,0.0,9e-08
1560461220778173091,12422,1560461220774442304,base_link,0.0102664457909,0.00100014438589,0.387934324018,0.921629372146,1.0,0.0,0.0,0.0,1.0,0.0,0.0,0.0,1.0,-0.00283109303564,0.000865223351866,-0.000185617129318,1.21846967915e-07,0.0,0.0,0.0,1.21846967915e-07,0.0,0.0,0.0,1.21846967915e-07,0.0680765807629,0.20083117485,9.81200408936,9e-08,0.0,0.0,0.0,9e-08,0.0,0.0,0.0,9e-08
1560461220797195822,12423,1560461220794442304,base_link,0.0102615139511,0.00100015426406,0.387956746141,0.921619846958,1.0,0.0,0.0,0.0,1.0,0.0,0.0,0.0,1.0,0.00174499431159,-0.000624884734862,-0.000239587679971,1.21846967915e-07,0.0,0.0,0.0,1.21846967915e-07,0.0,0.0,0.0,1.21846967915e-07,0.0591416209936,0.222501188517,9.78669834137,9e-08,0.0,0.0,0.0,9e-08,0.0,0.0,0.0,9e-08
1560461220818177271,12424,1560461220814442304,base_link,0.0102576966979,0.000996034738889,0.387964564382,0.921616664871,1.0,0.0,0.0,0.0,1.0,0.0,0.0,0.0,1.0,-0.00179829378612,0.00128091569059,-0.00253999698907,1.21846967915e-07,0.0,0.0,0.0,1.21846967915e-07,0.0,0.0,0.0,1.21846967915e-07,0.0780607834458,0.215409010649,9.81432342529,9e-08,0.0,0.0,0.0,9e-08,0.0,0.0,0.0,9e-08
1560461220836917315,12425,1560461220834442304,base_link,0.0102397977874,0.000988303097093,0.387982497866,0.921609352393,1.0,0.0,0.0,0.0,1.0,0.0,0.0,0.0,1.0,-0.00211310689338,-0.00148614426143,-0.00220288988203,1.21846967915e-07,0.0,0.0,0.0,1.21846967915e-07,0.0,0.0,0.0,1.21846967915e-07,0.0777882561088,0.194938331842,9.79165840149,9e-08,0.0,0.0,0.0,9e-08,0.0,0.0,0.0,9e-08
1560461220857592835,12426,1560461220854442304,base_link,0.0102199034871,0.000981834543663,0.387995626609,0.921604062963,1.0,0.0,0.0,0.0,1.0,0.0,0.0,0.0,1.0,-0.00253902957775,0.001708868891,-0.00210754014552,1.21846967915e-07,0.0,0.0,0.0,1.21846967915e-07,0.0,0.0,0.0,1.21846967915e-07,0.0344951711595,0.205535456538,9.83027935028,9e-08,0.0,0.0,0.0,9e-08,0.0,0.0,0.0,9e-08
1560461220878336155,12427,1560461220874439744,base_link,0.0102094145194,0.000973236257295,0.388006142248,0.921599700765,1.0,0.0,0.0,0.0,1.0,0.0,0.0,0.0,1.0,-0.0019003971247,0.00180950667709,-0.00254333065823,1.21846967915e-07,0.0,0.0,0.0,1.21846967915e-07,0.0,0.0,0.0,1.21846967915e-07,0.0786889791489,0.213537842035,9.75987243652,9e-08,0.0,0.0,0.0,9e-08,0.0,0.0,0.0,9e-08
1560461220897018065,12428,1560461220894439744,base_link,0.0101889874566,0.000995757491651,0.388014297663,0.921596518678,1.0,0.0,0.0,0.0,1.0,0.0,0.0,0.0,1.0,0.00181734247599,0.00234026554972,-0.00269883265719,1.21846967915e-07,0.0,0.0,0.0,1.21846967915e-07,0.0,0.0,0.0,1.21846967915e-07,0.0891573801637,0.157879859209,9.73236560822,9e-08,0.0,0.0,0.0,9e-08,0.0,0.0,0.0,9e-08
1560461220916425248,12429,1560461220914439744,base_link,0.0102399775701,0.000987123643879,0.388030123804,0.921589290493,1.0,0.0,0.0,0.0,1.0,0.0,0.0,0.0,1.0,0.0059927678667,-0.00424944749102,-0.000910537084565,1.21846967915e-07,0.0,0.0,0.0,1.21846967915e-07,0.0,0.0,0.0,1.21846967915e-07,0.0751947909594,0.142926678061,9.86751747131,9e-08,0.0,0.0,0.0,9e-08,0.0,0.0,0.0,9e-08
1560461220938623465,12430,1560461220934439744,base_link,0.0102601135562,0.000978140767518,0.388059605525,0.921576667512,1.0,0.0,0.0,0.0,1.0,0.0,0.0,0.0,1.0,0.000568265328184,0.000434148823842,-0.000647995970212,1.21846967915e-07,0.0,0.0,0.0,1.21846967915e-07,0.0,0.0,0.0,1.21846967915e-07,0.110445305705,0.260312527418,9.76036071777,9e-08,0.0,0.0,0.0,9e-08,0.0,0.0,0.0,9e-08
1560461220959068425,12431,1560461220954439744,base_link,0.0102262488927,0.000997838821569,0.388059921626,0.921576857173,1.0,0.0,0.0,0.0,1.0,0.0,0.0,0.0,1.0,-0.00371421850286,0.00361746922135,-0.0023046801798,1.21846967915e-07,0.0,0.0,0.0,1.21846967915e-07,0.0,0.0,0.0,1.21846967915e-07,0.073304310441,0.171271339059,9.76355934143,9e-08,0.0,0.0,0.0,9e-08,0.0,0.0,0.0,9e-08
1560461220978432564,12432,1560461220974437696,base_link,0.0102238099731,0.000991201680745,0.388081585107,0.921567837747,1.0,0.0,0.0,0.0,1.0,0.0,0.0,0.0,1.0,0.000460301351268,-0.00351076154038,-0.000412354129367,1.21846967915e-07,0.0,0.0,0.0,1.21846967915e-07,0.0,0.0,0.0,1.21846967915e-07,0.0662173181772,0.190673008561,9.80614471436,9e-08,0.0,0.0,0.0,9e-08,0.0,0.0,0.0,9e-08
1560461220996314329,12433,1560461220994437696,base_link,0.0102605860619,0.000987423940175,0.388099076049,0.92156004058,1.0,0.0,0.0,0.0,1.0,0.0,0.0,0.0,1.0,0.0022470082622,-0.000527997151949,-0.00300591485575,1.21846967915e-07,0.0,0.0,0.0,1.21846967915e-07,0.0,0.0,0.0,1.21846967915e-07,0.0679501146078,0.223818317056,9.7971162796,9e-08,0.0,0.0,0.0,9e-08,0.0,0.0,0.0,9e-08
1560461221016868250,12434,1560461221014437696,base_link,0.0102865554353,0.000975003461482,0.388109549541,0.92155529906,1.0,0.0,0.0,0.0,1.0,0.0,0.0,0.0,1.0,-0.00038790772669,-0.00126922829077,-0.000515736581292,1.21846967915e-07,0.0,0.0,0.0,1.21846967915e-07,0.0,0.0,0.0,1.21846967915e-07,0.0688073337078,0.172337934375,9.88955307007,9e-08,0.0,0.0,0.0,9e-08,0.0,0.0,0.0,9e-08
1560461221038245575,12435,1560461221034437696,base_link,0.0102416143824,0.000973107511844,0.388124279864,0.921549672455,1.0,0.0,0.0,0.0,1.0,0.0,0.0,0.0,1.0,-0.00531574897468,0.0036155176349,-0.00291678868234,1.21846967915e-07,0.0,0.0,0.0,1.21846967915e-07,0.0,0.0,0.0,1.21846967915e-07,0.0514519289136,0.195760846138,9.69682693481,9e-08,0.0,0.0,0.0,9e-08,0.0,0.0,0.0,9e-08
1560461221057198861,12436,1560461221054437696,base_link,0.0102327816542,0.000975802605243,0.388132435279,0.921546321781,1.0,0.0,0.0,0.0,1.0,0.0,0.0,0.0,1.0,0.000477081164718,-0.00264722993597,-8.94876429811e-05,1.21846967915e-07,0.0,0.0,0.0,1.21846967915e-07,0.0,0.0,0.0,1.21846967915e-07,0.0630094185472,0.174148604274,9.84912395477,9e-08,0.0,0.0,0.0,9e-08,0.0,0.0,0.0,9e-08
1560461221077999196,12437,1560461221075435648,base_link,0.0102508185297,0.000968575079268,0.388162422762,0.921533530212,1.0,0.0,0.0,0.0,1.0,0.0,0.0,0.0,1.0,0.00153315963689,-0.00265409098938,-1.10408291221e-06,1.21846967915e-07,0.0,0.0,0.0,1.21846967915e-07,0.0,0.0,0.0,1.21846967915e-07,0.0672376081347,0.244738280773,9.69957065582,9e-08,0.0,0.0,0.0,9e-08,0.0,0.0,0.0,9e-08
1560461221098247075,12438,1560461221095435648,base_link,0.0102560421048,0.000966949791422,0.388168786936,0.921530790667,1.0,0.0,0.0,0.0,1.0,0.0,0.0,0.0,1.0,-0.00180017366074,0.00203470233828,-0.00198067212477,1.21846967915e-07,0.0,0.0,0.0,1.21846967915e-07,0.0,0.0,0.0,1.21846967915e-07,0.0742789953947,0.200982451439,9.81533527374,9e-08,0.0,0.0,0.0,9e-08,0.0,0.0,0.0,9e-08
1560461221118553079,12439,1560461221115435648,base_link,0.0102236934107,0.000977114755175,0.388175045743,0.921528493664,1.0,0.0,0.0,0.0,1.0,0.0,0.0,0.0,1.0,-0.00145998795051,-9.92646673694e-05,-0.00113384344149,1.21846967915e-07,0.0,0.0,0.0,1.21846967915e-07,0.0,0.0,0.0,1.21846967915e-07,0.056735239923,0.176779031754,9.80922031403,9e-08,0.0,0.0,0.0,9e-08,0.0,0.0,0.0,9e-08
1560461221136226621,12440,1560461221131435648,base_link,0.0102317470808,0.000962292564661,0.38819367465,0.921520485763,1.0,0.0,0.0,0.0,1.0,0.0,0.0,0.0,1.0,0.000158547991305,-0.00338761508465,0.000562981236726,1.21846967915e-07,0.0,0.0,0.0,1.21846967915e-07,0.0,0.0,0.0,1.21846967915e-07,0.0696241110563,0.244331926107,9.80788516998,9e-08,0.0,0.0,0.0,9e-08,0.0,0.0,0.0,9e-08
1560461221158834874,12441,1560461221155435648,base_link,0.0102047546585,0.000954997208602,0.388205433621,0.921515807463,1.0,0.0,0.0,0.0,1.0,0.0,0.0,0.0,1.0,-0.00478207273409,0.0020280526951,-0.00248489202932,1.21846967915e-07,0.0,0.0,0.0,1.21846967915e-07,0.0,0.0,0.0,1.21846967915e-07,0.0895050540566,0.185554534197,9.78830051422,9e-08,0.0,0.0,0.0,9e-08,0.0,0.0,0.0,9e-08
1560461221178743876,12442,1560461221175432576,base_link,0.0101436117644,0.00096685463174,0.388221112249,0.921509991198,1.0,0.0,0.0,0.0,1.0,0.0,0.0,0.0,1.0,-0.00273405946791,0.00181331310887,-0.00102614169009,1.21846967915e-07,0.0,0.0,0.0,1.21846967915e-07,0.0,0.0,0.0,1.21846967915e-07,0.0393078923225,0.160155728459,9.72413063049,9e-08,0.0,0.0,0.0,9e-08,0.0,0.0,0.0,9e-08
1560461221198594539,12443,1560461221196432576,base_link,0.010146754668,0.000959698557844,0.388242986463,0.921500761038,1.0,0.0,0.0,0.0,1.0,0.0,0.0,0.0,1.0,0.000776273722295,-0.00254601496272,-0.000823136651888,1.21846967915e-07,0.0,0.0,0.0,1.21846967915e-07,0.0,0.0,0.0,1.21846967915e-07,0.0675502419472,0.186530858278,9.76139545441,9e-08,0.0,0.0,0.0,9e-08,0.0,0.0,0.0,9e-08
1560461221219558547,12444,1560461221216432576,base_link,0.0101508004362,0.000943448642838,0.388260856727,0.921493174605,1.0,0.0,0.0,0.0,1.0,0.0,0.0,0.0,1.0,-0.00135597225744,-0.00021116132848,-0.00156066659838,1.21846967915e-07,0.0,0.0,0.0,1.21846967915e-07,0.0,0.0,0.0,1.21846967915e-07,0.101278871298,0.256281673908,9.82921600342,9e-08,0.0,0.0,0.0,9e-08,0.0,0.0,0.0,9e-08
1560461221236151725,12445,1560461221232432576,base_link,0.0101153042287,0.000950008404682,0.388269560051,0.921489866077,1.0,0.0,0.0,0.0,1.0,0.0,0.0,0.0,1.0,-0.00584391225129,0.00414866674691,-0.00257884105667,1.21846967915e-07,0.0,0.0,0.0,1.21846967915e-07,0.0,0.0,0.0,1.21846967915e-07,0.0659654438496,0.225502818823,9.79333877563,9e-08,0.0,0.0,0.0,9e-08,0.0,0.0,0.0,9e-08
1560461221259736492,12446,1560461221256432576,base_link,0.0100643374936,0.000952028160688,0.388285301899,0.921483733711,1.0,0.0,0.0,0.0,1.0,0.0,0.0,0.0,1.0,-0.00208530877717,-0.000312388176098,-0.000475632958114,1.21846967915e-07,0.0,0.0,0.0,1.21846967915e-07,0.0,0.0,0.0,1.21846967915e-07,0.0596496649086,0.184353441,9.75448131561,9e-08,0.0,0.0,0.0,9e-08,0.0,0.0,0.0,9e-08
1560461221276531927,12447,1560461221272429504,base_link,0.0100697606076,0.000950267871218,0.388296007198,0.921479181851,1.0,0.0,0.0,0.0,1.0,0.0,0.0,0.0,1.0,0.00256750243716,-0.000425659993198,-0.00223767058924,1.21846967915e-07,0.0,0.0,0.0,1.21846967915e-07,0.0,0.0,0.0,1.21846967915e-07,0.0503417290747,0.176699459553,9.72778606415,9e-08,0.0,0.0,0.0,9e-08,0.0,0.0,0.0,9e-08
1560461221298878396,12448,1560461221296429504,base_link,0.0101382294801,0.000943034418342,0.388313708875,0.921471005363,1.0,0.0,0.0,0.0,1.0,0.0,0.0,0.0,1.0,0.00452452851459,-0.00371136283502,0.000521258800291,1.21846967915e-07,0.0,0.0,0.0,1.21846967915e-07,0.0,0.0,0.0,1.21846967915e-07,0.10084246099,0.208002194762,9.83500003815,9e-08,0.0,0.0,0.0,9e-08,0.0,0.0,0.0,9e-08
1560461221318666204,12449,1560461221316429504,base_link,0.0101388234873,0.000966815777614,0.388330209366,0.921463945766,1.0,0.0,0.0,0.0,1.0,0.0,0.0,0.0,1.0,0.00267396308482,0.00106520962436,-0.00235337205231,1.21846967915e-07,0.0,0.0,0.0,1.21846967915e-07,0.0,0.0,0.0,1.21846967915e-07,0.0378498956561,0.204172044992,9.72919940948,9e-08,0.0,0.0,0.0,9e-08,0.0,0.0,0.0,9e-08
1560461221336974075,12450,1560461221332429504,base_link,0.0101892693137,0.000973214196054,0.388335351281,0.921461332661,1.0,0.0,0.0,0.0,1.0,0.0,0.0,0.0,1.0,0.00759614864364,-0.00201125768945,-0.000375782197807,1.21846967915e-07,0.0,0.0,0.0,1.21846967915e-07,0.0,0.0,0.0,1.21846967915e-07,0.0463287681341,0.198669239879,9.85604763031,9e-08,0.0,0.0,0.0,9e-08,0.0,0.0,0.0,9e-08
1560461221355942511,12451,1560461221352429504,base_link,0.0102493466828,0.000968012023713,0.38836432724,0.921448372505,1.0,0.0,0.0,0.0,1.0,0.0,0.0,0.0,1.0,0.00496236793697,-0.00551302358508,0.00159246043768,1.21846967915e-07,0.0,0.0,0.0,1.21846967915e-07,0.0,0.0,0.0,1.21846967915e-07,0.0521617010236,0.230093866587,9.805975914,9e-08,0.0,0.0,0.0,9e-08,0.0,0.0,0.0,9e-08
1560461221378735907,12452,1560461221376426432,base_link,0.0102412360486,0.000949510874306,0.388378088186,0.921442788048,1.0,0.0,0.0,0.0,1.0,0.0,0.0,0.0,1.0,-0.00860212277621,0.00467560254037,-0.00263992906548,1.21846967915e-07,0.0,0.0,0.0,1.21846967915e-07,0.0,0.0,0.0,1.21846967915e-07,0.0825941637158,0.218455985188,9.82521343231,9e-08,0.0,0.0,0.0,9e-08,0.0,0.0,0.0,9e-08
1560461221395532695,12453,1560461221392426432,base_link,0.0101533839063,0.000978026839318,0.388378572875,0.921443567764,1.0,0.0,0.0,0.0,1.0,0.0,0.0,0.0,1.0,-0.00640225084499,0.00627665501088,-0.00310285831802,1.21846967915e-07,0.0,0.0,0.0,1.21846967915e-07,0.0,0.0,0.0,1.21846967915e-07,0.0139790661633,0.133555427194,9.7221622467,9e-08,0.0,0.0,0.0,9e-08,0.0,0.0,0.0,9e-08
1560461221417097003,12454,1560461221412426432,base_link,0.0102020467235,0.000982066022058,0.38839380896,0.921436592461,1.0,0.0,0.0,0.0,1.0,0.0,0.0,0.0,1.0,0.0101827951148,-0.00761202909052,0.000475815031677,1.21846967915e-07,0.0,0.0,0.0,1.21846967915e-07,0.0,0.0,0.0,1.21846967915e-07,0.0581935346127,0.13693138957,9.89483833313,9e-08,0.0,0.0,0.0,9e-08,0.0,0.0,0.0,9e-08
1560461221437182477,12455,1560461221433426432,base_link,0.0103145057106,0.000926785820424,0.38843861106,0.92141640412,1.0,0.0,0.0,0.0,1.0,0.0,0.0,0.0,1.0,0.00185783370398,-0.00392485363409,0.000249598408118,1.21846967915e-07,0.0,0.0,0.0,1.21846967915e-07,0.0,0.0,0.0,1.21846967915e-07,0.155189409852,0.306272864342,9.81061267853,9e-08,0.0,0.0,0.0,9e-08,0.0,0.0,0.0,9e-08
1560461221456077885,12456,1560461221453426432,base_link,0.0102214668718,0.00095915295372,0.388441350605,0.92141627768,1.0,0.0,0.0,0.0,1.0,0.0,0.0,0.0,1.0,-0.00875844899565,0.0117978621274,-0.00564348651096,1.21846967915e-07,0.0,0.0,0.0,1.21846967915e-07,0.0,0.0,0.0,1.21846967915e-07,0.0915549769998,0.193759009242,9.75301742554,9e-08,0.0,0.0,0.0,9e-08,0.0,0.0,0.0,9e-08
1560461221476825574,12457,1560461221473424128,base_link,0.0101688886782,0.000981846397465,0.388440001906,0.921417373498,1.0,0.0,0.0,0.0,1.0,0.0,0.0,0.0,1.0,0.00343603338115,-0.00424268236384,-0.000510823098011,1.21846967915e-07,0.0,0.0,0.0,1.21846967915e-07,0.0,0.0,0.0,1.21846967915e-07,0.0203379802406,0.00135971605778,9.80599784851,9e-08,0.0,0.0,0.0,9e-08,0.0,0.0,0.0,9e-08
1560461221497519597,12458,1560461221493424128,base_link,0.0102726440118,0.00092124416839,0.388484572199,0.921397585553,1.0,0.0,0.0,0.0,1.0,0.0,0.0,0.0,1.0,0.00582302780822,-0.00828330870718,0.00213664304465,1.21846967915e-07,0.0,0.0,0.0,1.21846967915e-07,0.0,0.0,0.0,1.21846967915e-07,0.124659925699,0.303276360035,9.77425670624,9e-08,0.0,0.0,0.0,9e-08,0.0,0.0,0.0,9e-08
1560461221517020038,12459,1560461221513424128,base_link,0.0102561059836,0.000940598132935,0.388492811907,0.921394234878,1.0,0.0,0.0,0.0,1.0,0.0,0.0,0.0,1.0,-0.00647984165698,0.0090420152992,-0.00278273574077,1.21846967915e-07,0.0,0.0,0.0,1.21846967915e-07,0.0,0.0,0.0,1.21846967915e-07,0.0815121084452,0.221968978643,9.85729980469,9e-08,0.0,0.0,0.0,9e-08,0.0,0.0,0.0,9e-08
1560461221536607072,12460,1560461221533424128,base_link,0.0101851402396,0.000972009059604,0.388492832981,0.921395056742,1.0,0.0,0.0,0.0,1.0,0.0,0.0,0.0,1.0,-0.003026783932,0.00214617745951,0.00114483432844,1.21846967915e-07,0.0,0.0,0.0,1.21846967915e-07,0.0,0.0,0.0,1.21846967915e-07,0.0118677504361,0.116256713867,9.85083675385,9e-08,0.0,0.0,0.0,9e-08,0.0,0.0,0.0,9e-08
1560461221559081301,12461,1560461221553424128,base_link,0.0102268656196,0.000951908964132,0.388525538935,0.921380726813,1.0,0.0,0.0,0.0,1.0,0.0,0.0,0.0,1.0,0.00622165203094,-0.00509401317686,0.000313374213874,1.21846967915e-07,0.0,0.0,0.0,1.21846967915e-07,0.0,0.0,0.0,1.21846967915e-07,0.0380204916,0.169109359384,9.66817569733,9e-08,0.0,0.0,0.0,9e-08,0.0,0.0,0.0,9e-08
1560461221577240789,12462,1560461221573422080,base_link,0.0102763368002,0.000949478934897,0.388533799718,0.921376680716,1.0,0.0,0.0,0.0,1.0,0.0,0.0,0.0,1.0,-0.000521745358128,0.00138392974623,-0.00249959644862,1.21846967915e-07,0.0,0.0,0.0,1.21846967915e-07,0.0,0.0,0.0,1.21846967915e-07,0.104250788689,0.179965108633,9.84793376923,9e-08,0.0,0.0,0.0,9e-08,0.0,0.0,0.0,9e-08
1560461221596872581,12463,1560461221593422080,base_link,0.0102254958471,0.000953665960879,0.388558118449,0.921367029087,1.0,0.0,0.0,0.0,1.0,0.0,0.0,0.0,1.0,-0.00658304383978,0.00245462823659,-0.00136117648799,1.21846967915e-07,0.0,0.0,0.0,1.21846967915e-07,0.0,0.0,0.0,1.21846967915e-07,0.0642831921577,0.203260347247,9.74224376678,9e-08,0.0,0.0,0.0,9e-08,0.0,0.0,0.0,9e-08
1560461221616205731,12464,1560461221613422080,base_link,0.0101890394816,0.000968656409514,0.388564124375,0.921364816378,1.0,0.0,0.0,0.0,1.0,0.0,0.0,0.0,1.0,-0.000933038420044,0.00255980622023,-0.00153543637134,1.21846967915e-07,0.0,0.0,0.0,1.21846967915e-07,0.0,0.0,0.0,1.21846967915e-07,0.0596635565162,0.163796335459,9.80286121368,9e-08,0.0,0.0,0.0,9e-08,0.0,0.0,0.0,9e-08
1560461221638086714,12465,1560461221633422080,base_link,0.0102255406281,0.000957348541768,0.388586019663,0.92135522797,1.0,0.0,0.0,0.0,1.0,0.0,0.0,0.0,1.0,0.00440518790856,-0.00541132269427,0.000135984853841,1.21846967915e-07,0.0,0.0,0.0,1.21846967915e-07,0.0,0.0,0.0,1.21846967915e-07,0.0611879304051,0.19236433506,9.80650043488,9e-08,0.0,0.0,0.0,9e-08,0.0,0.0,0.0,9e-08
1560461221656307770,12466,1560461221653422080,base_link,0.0102431494497,0.000934740050264,0.388612319296,0.921343932614,1.0,0.0,0.0,0.0,1.0,0.0,0.0,0.0,1.0,-0.00242636911571,0.000850903685205,-0.00214356393553,1.21846967915e-07,0.0,0.0,0.0,1.21846967915e-07,0.0,0.0,0.0,1.21846967915e-07,0.0864808410406,0.231739357114,9.77284908295,9e-08,0.0,0.0,0.0,9e-08,0.0,0.0,0.0,9e-08
1560461221677260903,12467,1560461221673420288,base_link,0.0101827003322,0.000963202343899,0.388610148734,0.921345597415,1.0,0.0,0.0,0.0,1.0,0.0,0.0,0.0,1.0,-0.0049931127578,0.00361897284165,-0.00265334290452,1.21846967915e-07,0.0,0.0,0.0,1.21846967915e-07,0.0,0.0,0.0,1.21846967915e-07,0.036568839103,0.165992185473,9.8515329361,9e-08,0.0,0.0,0.0,9e-08,0.0,0.0,0.0,9e-08
1560461221697942223,12468,1560461221693420288,base_link,0.0101919123821,0.000962289271939,0.38862631205,0.921338537818,1.0,0.0,0.0,0.0,1.0,0.0,0.0,0.0,1.0,0.00345508405007,-0.0034926077351,0.000567657174543,1.21846967915e-07,0.0,0.0,0.0,1.21846967915e-07,0.0,0.0,0.0,1.21846967915e-07,0.0526852719486,0.168159842491,9.81086158752,9e-08,0.0,0.0,0.0,9e-08,0.0,0.0,0.0,9e-08
1560461221717051654,12469,1560461221713420288,base_link,0.0102337032873,0.000944090065188,0.38864723796,0.921329328731,1.0,0.0,0.0,0.0,1.0,0.0,0.0,0.0,1.0,0.00129741732962,-0.00148668629117,-0.00164422625676,1.21846967915e-07,0.0,0.0,0.0,1.21846967915e-07,0.0,0.0,0.0,1.21846967915e-07,0.099306255579,0.259273022413,9.77344226837,9e-08,0.0,0.0,0.0,9e-08,0.0,0.0,0.0,9e-08
1560461221737188959,12470,1560461221733420288,base_link,0.010192991078,0.000966993913904,0.388644709149,0.921330761724,1.0,0.0,0.0,0.0,1.0,0.0,0.0,0.0,1.0,-0.00649339938536,0.00446609128267,-0.00327204889618,1.21846967915e-07,0.0,0.0,0.0,1.21846967915e-07,0.0,0.0,0.0,1.21846967915e-07,0.0590207129717,0.174819648266,9.82485198975,9e-08,0.0,0.0,0.0,9e-08,0.0,0.0,0.0,9e-08
1560461221756716636,12471,1560461221753420288,base_link,0.0101910444204,0.000965256673492,0.388661715403,0.921323702127,1.0,0.0,0.0,0.0,1.0,0.0,0.0,0.0,1.0,0.00153560750186,-0.00264744879678,0.000378029304557,1.21846967915e-07,0.0,0.0,0.0,1.21846967915e-07,0.0,0.0,0.0,1.21846967915e-07,0.0683386847377,0.155192106962,9.76833343506,9e-08,0.0,0.0,0.0,9e-08,0.0,0.0,0.0,9e-08
1560461221778126152,12472,1560461221774418240,base_link,0.0102424309776,0.000944372580782,0.388685739106,0.921312996828,1.0,0.0,0.0,0.0,1.0,0.0,0.0,0.0,1.0,0.00175338611007,-0.00338501320221,-0.000142243923619,1.21846967915e-07,0.0,0.0,0.0,1.21846967915e-07,0.0,0.0,0.0,1.21846967915e-07,0.0977948978543,0.229949504137,9.78323936462,9e-08,0.0,0.0,0.0,9e-08,0.0,0.0,0.0,9e-08
1560461221798100545,12473,1560461221795418240,base_link,0.0102321642687,0.000958508897191,0.388690543847,0.921311058073,1.0,0.0,0.0,0.0,1.0,0.0,0.0,0.0,1.0,-0.0029654095415,0.00308487797156,-0.00213736644946,1.21846967915e-07,0.0,0.0,0.0,1.21846967915e-07,0.0,0.0,0.0,1.21846967915e-07,0.0496424511075,0.20941889286,9.80695915222,9e-08,0.0,0.0,0.0,9e-08,0.0,0.0,0.0,9e-08
1560461221817795683,12474,1560461221815418240,base_link,0.0102049005261,0.000967401882227,0.388701017339,0.921306990902,1.0,0.0,0.0,0.0,1.0,0.0,0.0,0.0,1.0,-0.00316200545058,0.000323315733112,-0.000743114389479,1.21846967915e-07,0.0,0.0,0.0,1.21846967915e-07,0.0,0.0,0.0,1.21846967915e-07,0.0487935431302,0.190959230065,9.77361774445,9e-08,0.0,0.0,0.0,9e-08,0.0,0.0,0.0,9e-08
1560461221836268946,12475,1560461221831418240,base_link,0.0102078142563,0.000958275443163,0.388712017667,0.921302312602,1.0,0.0,0.0,0.0,1.0,0.0,0.0,0.0,1.0,0.000997116439976,-0.00137387984432,-0.000465061224531,1.21846967915e-07,0.0,0.0,0.0,1.21846967915e-07,0.0,0.0,0.0,1.21846967915e-07,0.0622111149132,0.205683797598,9.77293968201,9e-08,0.0,0.0,0.0,9e-08,0.0,0.0,0.0,9e-08
1560461221859268137,12476,1560461221855418240,base_link,0.0102313700641,0.000954906658732,0.388723818784,0.921297002099,1.0,0.0,0.0,0.0,1.0,0.0,0.0,0.0,1.0,0.000569600320887,-0.000838261970785,-0.000782493618317,1.21846967915e-07,0.0,0.0,0.0,1.21846967915e-07,0.0,0.0,0.0,1.21846967915e-07,0.05037727952,0.208784550428,9.84647750854,9e-08,0.0,0.0,0.0,9e-08,0.0,0.0,0.0,9e-08
1560461221876492994,12477,1560461221871415680,base_link,0.0102335877127,0.000959095331075,0.388738022272,0.921290975099,1.0,0.0,0.0,0.0,1.0,0.0,0.0,0.0,1.0,-0.000817357969936,0.00181827170309,-0.000771966006141,1.21846967915e-07,0.0,0.0,0.0,1.21846967915e-07,0.0,0.0,0.0,1.21846967915e-07,0.0735338106751,0.188583552837,9.80150508881,9e-08,0.0,0.0,0.0,9e-08,0.0,0.0,0.0,9e-08
1560461221897850485,12478,1560461221895415680,base_link,0.0102273861991,0.000968991279397,0.38875616649,0.921283367593,1.0,0.0,0.0,0.0,1.0,0.0,0.0,0.0,1.0,-0.000831907382235,0.000749047030695,-0.00171855418012,1.21846967915e-07,0.0,0.0,0.0,1.21846967915e-07,0.0,0.0,0.0,1.21846967915e-07,0.0619127824903,0.19024194777,9.75169277191,9e-08,0.0,0.0,0.0,9e-08,0.0,0.0,0.0,9e-08
1560461221916625449,12479,1560461221911415680,base_link,0.0102265801406,0.000966395296946,0.388760212588,0.921281681719,1.0,0.0,0.0,0.0,1.0,0.0,0.0,0.0,1.0,0.000666652049404,-0.000527907861397,-0.00130764779169,1.21846967915e-07,0.0,0.0,0.0,1.21846967915e-07,0.0,0.0,0.0,1.21846967915e-07,0.0347503907979,0.177895337343,9.75207710266,9e-08,0.0,0.0,0.0,9e-08,0.0,0.0,0.0,9e-08
1560461221938009647,12480,1560461221935415680,base_link,0.0102427816526,0.000958721936339,0.388774816471,0.921275338619,1.0,0.0,0.0,0.0,1.0,0.0,0.0,0.0,1.0,0.00119655719027,0.000324605265632,-0.00121753220446,1.21846967915e-07,0.0,0.0,0.0,1.21846967915e-07,0.0,0.0,0.0,1.21846967915e-07,0.0518753305078,0.193416655064,9.81539154053,9e-08,0.0,0.0,0.0,9e-08,0.0,0.0,0.0,9e-08
1560461221959848373,12481,1560461221955415680,base_link,0.0102325547856,0.000960824998225,0.3887861329,0.921270765685,1.0,0.0,0.0,0.0,1.0,0.0,0.0,0.0,1.0,-0.00042217792361,0.00116848142352,-0.00321345310658,1.21846967915e-07,0.0,0.0,0.0,1.21846967915e-07,0.0,0.0,0.0,1.21846967915e-07,0.0561365522444,0.172148525715,9.79483127594,9e-08,0.0,0.0,0.0,9e-08,0.0,0.0,0.0,9e-08
1560461221975570411,12482,1560461221971413632,base_link,0.0102275330545,0.000963582653352,0.38879943023,0.921265223375,1.0,0.0,0.0,0.0,1.0,0.0,0.0,0.0,1.0,4.47443417215e-05,0.000225942814723,-0.000236013089307,1.21846967915e-07,0.0,0.0,0.0,1.21846967915e-07,0.0,0.0,0.0,1.21846967915e-07,0.0753243491054,0.177672237158,9.83932304382,9e-08,0.0,0.0,0.0,9e-08,0.0,0.0,0.0,9e-08
1560461221998449419,12483,1560461221995413632,base_link,0.0102445732229,0.00095855697094,0.388824191504,0.921254623442,1.0,0.0,0.0,0.0,1.0,0.0,0.0,0.0,1.0,-0.000287724018563,-0.000523819588125,-0.000866366317496,1.21846967915e-07,0.0,0.0,0.0,1.21846967915e-07,0.0,0.0,0.0,1.21846967915e-07,0.0766279026866,0.201207756996,9.79395675659,9e-08,0.0,0.0,0.0,9e-08,0.0,0.0,0.0,9e-08
1560461222017743296,12484,1560461222015413632,base_link,0.010223679252,0.000955257333683,0.388835444712,0.921249945142,1.0,0.0,0.0,0.0,1.0,0.0,0.0,0.0,1.0,-0.00273045571521,0.00213826540858,-0.000735106354114,1.21846967915e-07,0.0,0.0,0.0,1.21846967915e-07,0.0,0.0,0.0,1.21846967915e-07,0.0674934983253,0.191479355097,9.74980258942,9e-08,0.0,0.0,0.0,9e-08,0.0,0.0,0.0,9e-08
1560461222036126922,12485,1560461222031413632,base_link,0.0102052673354,0.000964875046949,0.388838774313,0.921248807177,1.0,0.0,0.0,0.0,1.0,0.0,0.0,0.0,1.0,-0.000934648443945,0.00149322103243,-0.00160674436484,1.21846967915e-07,0.0,0.0,0.0,1.21846967915e-07,0.0,0.0,0.0,1.21846967915e-07,0.0694723650813,0.160291418433,9.79197692871,9e-08,0.0,0.0,0.0,9e-08,0.0,0.0,0.0,9e-08
1560461222058902602,12486,1560461222055413632,base_link,0.0102251158669,0.000944614266617,0.38886958366,0.921235615214,1.0,0.0,0.0,0.0,1.0,0.0,0.0,0.0,1.0,0.00428761867806,-0.00307798502035,-0.00101379840635,1.21846967915e-07,0.0,0.0,0.0,1.21846967915e-07,0.0,0.0,0.0,1.21846967915e-07,0.0876021981239,0.22874173522,9.79282474518,9e-08,0.0,0.0,0.0,9e-08,0.0,0.0,0.0,9e-08
1560461222078725706,12487,1560461222075411840,base_link,0.0102502406569,0.00094620267597,0.388880794721,0.921230557592,1.0,0.0,0.0,0.0,1.0,0.0,0.0,0.0,1.0,0.00182636303362,0.000111783389002,-0.00195369403809,1.21846967915e-07,0.0,0.0,0.0,1.21846967915e-07,0.0,0.0,0.0,1.21846967915e-07,0.0529079139233,0.159243628383,9.87280654907,9e-08,0.0,0.0,0.0,9e-08,0.0,0.0,0.0,9e-08
1560461222097700076,12488,1560461222095411840,base_link,0.0102361504386,0.000946639949523,0.388898159223,0.921223392628,1.0,0.0,0.0,0.0,1.0,0.0,0.0,0.0,1.0,-0.00377744692378,0.000334677984938,0.000787401455455,1.21846967915e-07,0.0,0.0,0.0,1.21846967915e-07,0.0,0.0,0.0,1.21846967915e-07,0.0842511281371,0.262648105621,9.72279167175,9e-08,0.0,0.0,0.0,9e-08,0.0,0.0,0.0,9e-08
1560461222118373347,12489,1560461222115411840,base_link,0.0101995030953,0.000961435468984,0.388897674534,0.92122396161,1.0,0.0,0.0,0.0,1.0,0.0,0.0,0.0,1.0,0.00484108086675,0.00370663381182,-0.00668749446049,1.21846967915e-07,0.0,0.0,0.0,1.21846967915e-07,0.0,0.0,0.0,1.21846967915e-07,0.0646135509014,0.151459991932,9.87754631042,9e-08,0.0,0.0,0.0,9e-08,0.0,0.0,0.0,9e-08
1560461222135795379,12490,1560461222132411840,base_link,0.0102762633724,0.000964576397015,0.388901994586,0.921221327432,1.0,0.0,0.0,0.0,1.0,0.0,0.0,0.0,1.0,0.00743203097954,-0.00954872276634,0.00334483408369,1.21846967915e-07,0.0,0.0,0.0,1.21846967915e-07,0.0,0.0,0.0,1.21846967915e-07,0.0353598110378,0.0907505452633,10.0530261993,9e-08,0.0,0.0,0.0,9e-08,0.0,0.0,0.0,9e-08
1560461222160550959,12491,1560461222156411840,base_link,0.0102439242273,0.000901982400076,0.388960094017,0.921197282655,1.0,0.0,0.0,0.0,1.0,0.0,0.0,0.0,1.0,-0.0135159548372,0.00817112345248,-0.00380056444556,1.21846967915e-07,0.0,0.0,0.0,1.21846967915e-07,0.0,0.0,0.0,1.21846967915e-07,0.156685978174,0.422892510891,9.39642810822,9e-08,0.0,0.0,0.0,9e-08,0.0,0.0,0.0,9e-08
1560461222176393720,12492,1560461222172410816,base_link,0.0101501353063,0.000997732466631,0.3888974638,0.921224678107,1.0,0.0,0.0,0.0,1.0,0.0,0.0,0.0,1.0,0.0011638822034,0.0133533570915,-0.0125341089442,1.21846967915e-07,0.0,0.0,0.0,1.21846967915e-07,0.0,0.0,0.0,1.21846967915e-07,-0.0715415105224,-0.0272407233715,9.91150665283,9e-08,0.0,0.0,0.0,9e-08,0.0,0.0,0.0,9e-08
1560461222196777011,12493,1560461222192410816,base_link,0.010286129357,0.000947732474862,0.388936428561,0.921206786769,1.0,0.0,0.0,0.0,1.0,0.0,0.0,0.0,1.0,0.0144652957097,-0.0235440246761,0.0114120319486,1.21846967915e-07,0.0,0.0,0.0,1.21846967915e-07,0.0,0.0,0.0,1.21846967915e-07,0.0179255343974,0.0766501426697,10.0291976929,9e-08,0.0,0.0,0.0,9e-08,0.0,0.0,0.0,9e-08
1560461222216137443,12494,1560461222212410816,base_link,0.0103367256608,0.000856920175028,0.389001945837,0.921178527307,1.0,0.0,0.0,0.0,1.0,0.0,0.0,0.0,1.0,-0.0139541970566,0.0103900674731,-0.00507225189358,1.21846967915e-07,0.0,0.0,0.0,1.21846967915e-07,0.0,0.0,0.0,1.21846967915e-07,0.279027998447,0.531438529491,9.50268936157,9e-08,0.0,0.0,0.0,9e-08,0.0,0.0,0.0,9e-08
1560461222237343079,12495,1560461222232410816,base_link,0.0101050734105,0.00102146015453,0.388906925767,0.921221032404,1.0,0.0,0.0,0.0,1.0,0.0,0.0,0.0,1.0,-0.0151152452454,0.0193529948592,-0.0118359383196,1.21846967915e-07,0.0,0.0,0.0,1.21846967915e-07,0.0,0.0,0.0,1.21846967915e-07,-0.058570869267,-0.077030479908,9.98768615723,9e-08,0.0,0.0,0.0,9e-08,0.0,0.0,0.0,9e-08
1560461222259502491,12496,1560461222256410816,base_link,0.0102644688403,0.00091817930225,0.389005907641,0.921177684371,1.0,0.0,0.0,0.0,1.0,0.0,0.0,0.0,1.0,0.0172065421939,-0.0262234639376,0.0102186184376,1.21846967915e-07,0.0,0.0,0.0,1.21846967915e-07,0.0,0.0,0.0,1.21846967915e-07,0.0486060380936,0.345786184072,9.64716625214,9e-08,0.0,0.0,0.0,9e-08,0.0,0.0,0.0,9e-08
1560461222278023895,12497,1560461222272406208,base_link,0.0103791010243,0.00086491424681,0.389029783831,0.921166367942,1.0,0.0,0.0,0.0,1.0,0.0,0.0,0.0,1.0,0.00405131466687,0.00347906397656,-0.00399828050286,1.21846967915e-07,0.0,0.0,0.0,1.21846967915e-07,0.0,0.0,0.0,1.21846967915e-07,0.217170700431,0.464520454407,9.70411300659,9e-08,0.0,0.0,0.0,9e-08,0.0,0.0,0.0,9e-08
1560461222294980993,12498,1560461222292406208,base_link,0.0101929973341,0.000985724566072,0.388972990953,0.921192309327,1.0,0.0,0.0,0.0,1.0,0.0,0.0,0.0,1.0,-0.0168617218733,0.0162622444332,-0.00676927249879,1.21846967915e-07,0.0,0.0,0.0,1.21846967915e-07,0.0,0.0,0.0,1.21846967915e-07,-0.0388242900372,0.00851587951183,9.9535484314,9e-08,0.0,0.0,0.0,9e-08,0.0,0.0,0.0,9e-08
1560461222317189524,12499,1560461222312406208,base_link,0.0101583104778,0.000970452918932,0.389013641588,0.921175598102,1.0,0.0,0.0,0.0,1.0,0.0,0.0,0.0,1.0,0.00446242140606,-0.0115601522848,0.00405045226216,1.21846967915e-07,0.0,0.0,0.0,1.21846967915e-07,0.0,0.0,0.0,1.21846967915e-07,-0.0160110965371,0.165442407131,9.60512638092,9e-08,0.0,0.0,0.0,9e-08,0.0,0.0,0.0,9e-08
1560461222335546383,12500,1560461222332406208,base_link,0.0102962469055,0.000906265573556,0.389042912574,0.921161668568,1.0,0.0,0.0,0.0,1.0,0.0,0.0,0.0,1.0,0.00917575415224,-0.00511062704027,-0.00211115926504,1.21846967915e-07,0.0,0.0,0.0,1.21846967915e-07,0.0,0.0,0.0,1.21846967915e-07,0.137153208256,0.313371419907,9.79406166077,9e-08,0.0,0.0,0.0,9e-08,0.0,0.0,0.0,9e-08
1560461222360302735,12501,1560461222356406208,base_link,0.0102227526799,0.000950894476317,0.389040615571,0.921163459809,1.0,0.0,0.0,0.0,1.0,0.0,0.0,0.0,1.0,-0.00808399077505,0.00648885266855,-0.00300303846598,1.21846967915e-07,0.0,0.0,0.0,1.21846967915e-07,0.0,0.0,0.0,1.21846967915e-07,0.0342659130692,0.193289458752,9.83000278473,9e-08,0.0,0.0,0.0,9e-08,0.0,0.0,0.0,9e-08
1560461222376206336,12502,1560461222372403904,base_link,0.0101809054691,0.00095591719528,0.389049213528,0.921160256649,1.0,0.0,0.0,0.0,1.0,0.0,0.0,0.0,1.0,-0.0018762703985,-0.000205623568036,-0.000391081150156,1.21846967915e-07,0.0,0.0,0.0,1.21846967915e-07,0.0,0.0,0.0,1.21846967915e-07,0.0312432050705,0.152954995632,9.74762248993,9e-08,0.0,0.0,0.0,9e-08,0.0,0.0,0.0,9e-08
1560461222395005632,12503,1560461222392403904,base_link,0.0102247059229,0.000937755196294,0.389070329099,0.921150857901,1.0,0.0,0.0,0.0,1.0,0.0,0.0,0.0,1.0,0.00366656691767,-0.00403271755204,-0.000127855397295,1.21846967915e-07,0.0,0.0,0.0,1.21846967915e-07,0.0,0.0,0.0,1.21846967915e-07,0.0683000385761,0.233102560043,9.70094966888,9e-08,0.0,0.0,0.0,9e-08,0.0,0.0,0.0,9e-08
1560461222416117801,12504,1560461222412403904,base_link,0.0102623124363,0.000938939588592,0.38908375287,0.921144683388,1.0,0.0,0.0,0.0,1.0,0.0,0.0,0.0,1.0,0.00129773048684,0.00106720323674,-0.0018210131675,1.21846967915e-07,0.0,0.0,0.0,1.21846967915e-07,0.0,0.0,0.0,1.21846967915e-07,0.0974469557405,0.215770423412,9.85027313232,9e-08,0.0,0.0,0.0,9e-08,0.0,0.0,0.0,9e-08
1560461222437353577,12505,1560461222432403904,base_link,0.0102348063493,0.000949158882266,0.389091866139,0.921141627742,1.0,0.0,0.0,0.0,1.0,0.0,0.0,0.0,1.0,-0.0040094004944,0.00160352338571,-0.000793247076217,1.21846967915e-07,0.0,0.0,0.0,1.21846967915e-07,0.0,0.0,0.0,1.21846967915e-07,0.0432080067694,0.177561417222,9.82146263123,9e-08,0.0,0.0,0.0,9e-08,0.0,0.0,0.0,9e-08
1560461222455620413,12506,1560461222452403904,base_link,0.0102040253205,0.000944311336143,0.389107776574,0.921135326788,1.0,0.0,0.0,0.0,1.0,0.0,0.0,0.0,1.0,-0.00102715671528,0.000966527499259,-0.000402728037443,1.21846967915e-07,0.0,0.0,0.0,1.21846967915e-07,0.0,0.0,0.0,1.21846967915e-07,0.0665481165051,0.196906641126,9.67598724365,9e-08,0.0,0.0,0.0,9e-08,0.0,0.0,0.0,9e-08
1560461222479327954,12507,1560461222476400064,base_link,0.0102432291336,0.000952605704221,0.389110853294,0.921133514473,1.0,0.0,0.0,0.0,1.0,0.0,0.0,0.0,1.0,0.00544965174049,-0.00404089875519,-0.00174048286863,1.21846967915e-07,0.0,0.0,0.0,1.21846967915e-07,0.0,0.0,0.0,1.21846967915e-07,0.0321489684284,0.145275369287,9.91886520386,9e-08,0.0,0.0,0.0,9e-08,0.0,0.0,0.0,9e-08
1560461222498916200,12508,1560461222496400064,base_link,0.0102875547766,0.000921590562801,0.389147099584,0.921117835846,1.0,0.0,0.0,0.0,1.0,0.0,0.0,0.0,1.0,-0.00225819437765,-0.00295441364869,0.0029350083787,1.21846967915e-07,0.0,0.0,0.0,1.21846967915e-07,0.0,0.0,0.0,1.21846967915e-07,0.0754329040647,0.292765080929,9.73402500153,9e-08,0.0,0.0,0.0,9e-08,0.0,0.0,0.0,9e-08
1560461222519629565,12509,1560461222516400064,base_link,0.0102040957847,0.00094879273152,0.389139492078,0.921121818723,1.0,0.0,0.0,0.0,1.0,0.0,0.0,0.0,1.0,-0.00758342212066,0.0104146534577,-0.00546246999875,1.21846967915e-07,0.0,0.0,0.0,1.21846967915e-07,0.0,0.0,0.0,1.21846967915e-07,0.0764254108071,0.207093566656,9.74371051788,9e-08,0.0,0.0,0.0,9e-08,0.0,0.0,0.0,9e-08
1560461222536175795,12510,1560461222532400064,base_link,0.0101715110025,0.000981226048538,0.389124150625,0.921128730806,1.0,0.0,0.0,0.0,1.0,0.0,0.0,0.0,1.0,0.00162967853248,0.000326449982822,-0.000855865306221,1.21846967915e-07,0.0,0.0,0.0,1.21846967915e-07,0.0,0.0,0.0,1.21846967915e-07,0.00304760038853,0.0435215011239,9.91491127014,9e-08,0.0,0.0,0.0,9e-08,0.0,0.0,0.0,9e-08
1560461222559540308,12511,1560461222556400064,base_link,0.0102841952118,0.000901017303099,0.389187665925,0.921100618858,1.0,0.0,0.0,0.0,1.0,0.0,0.0,0.0,1.0,0.00509003829211,-0.00773891760036,0.00339412689209,1.21846967915e-07,0.0,0.0,0.0,1.21846967915e-07,0.0,0.0,0.0,1.21846967915e-07,0.140559732914,0.331687152386,9.72025871277,9e-08,0.0,0.0,0.0,9e-08,0.0,0.0,0.0,9e-08
1560461222576069759,12512,1560461222572397760,base_link,0.0102605722325,0.000914413086208,0.389187602705,0.921100934959,1.0,0.0,0.0,0.0,1.0,0.0,0.0,0.0,1.0,-0.0049332017079,0.00851544737816,-0.00559740839526,1.21846967915e-07,0.0,0.0,0.0,1.21846967915e-07,0.0,0.0,0.0,1.21846967915e-07,0.11111587286,0.237533688545,9.73428153992,9e-08,0.0,0.0,0.0,9e-08,0.0,0.0,0.0,9e-08
1560461222597921446,12513,1560461222592397760,base_link,0.0101748057006,0.000960893486854,0.389169879955,0.921109301109,1.0,0.0,0.0,0.0,1.0,0.0,0.0,0.0,1.0,-0.00399696221575,0.00277315406129,-4.30250656791e-05,1.21846967915e-07,0.0,0.0,0.0,1.21846967915e-07,0.0,0.0,0.0,1.21846967915e-07,0.000908382236958,0.0519973188639,9.89867019653,9e-08,0.0,0.0,0.0,9e-08,0.0,0.0,0.0,9e-08
1560461222617479919,12514,1560461222613397760,base_link,0.010216709217,0.000913632052422,0.389208065,0.921092779544,1.0,0.0,0.0,0.0,1.0,0.0,0.0,0.0,1.0,0.00558614078909,-0.00541442167014,0.000510379322805,1.21846967915e-07,0.0,0.0,0.0,1.21846967915e-07,0.0,0.0,0.0,1.21846967915e-07,0.099120080471,0.220459401608,9.72256183624,9e-08,0.0,0.0,0.0,9e-08,0.0,0.0,0.0,9e-08
1560461222637071059,12515,1560461222633397760,base_link,0.0102552706199,0.000916657735164,0.389210130196,0.921091472992,1.0,0.0,0.0,0.0,1.0,0.0,0.0,0.0,1.0,-0.000439501309302,0.00318176625296,-0.00434746127576,1.21846967915e-07,0.0,0.0,0.0,1.21846967915e-07,0.0,0.0,0.0,1.21846967915e-07,0.0781911015511,0.166931316257,9.86413574219,9e-08,0.0,0.0,0.0,9e-08,0.0,0.0,0.0,9e-08
1560461222658326878,12516,1560461222653397760,base_link,0.0101986700365,0.000929508572693,0.389221994534,0.921087026499,1.0,0.0,0.0,0.0,1.0,0.0,0.0,0.0,1.0,-0.00495826778933,0.00234834197909,-0.000343028048519,1.21846967915e-07,0.0,0.0,0.0,1.21846967915e-07,0.0,0.0,0.0,1.21846967915e-07,0.0339428968728,0.192536696792,9.72634220123,9e-08,0.0,0.0,0.0,9e-08,0.0,0.0,0.0,9e-08
1560461222678842296,12517,1560461222673395712,base_link,0.0102077671704,0.00093427775202,0.389233353109,0.921082242832,1.0,0.0,0.0,0.0,1.0,0.0,0.0,0.0,1.0,0.00493237003684,-0.000413921952713,-0.000881750194822,1.21846967915e-07,0.0,0.0,0.0,1.21846967915e-07,0.0,0.0,0.0,1.21846967915e-07,0.0670453831553,0.137517914176,9.77936458588,9e-08,0.0,0.0,0.0,9e-08,0.0,0.0,0.0,9e-08
1560461222696180269,12518,1560461222693395712,base_link,0.0102621313366,0.000910796689043,0.389252782806,0.921073434141,1.0,0.0,0.0,0.0,1.0,0.0,0.0,0.0,1.0,0.00144978810567,-0.00498549174517,0.00163299543783,1.21846967915e-07,0.0,0.0,0.0,1.21846967915e-07,0.0,0.0,0.0,1.21846967915e-07,0.0898097753525,0.182720899582,9.87997722626,9e-08,0.0,0.0,0.0,9e-08,0.0,0.0,0.0,9e-08
1560461222718050243,12519,1560461222713395712,base_link,0.0102416884687,0.000908224743467,0.389265405787,0.921068229005,1.0,0.0,0.0,0.0,1.0,0.0,0.0,0.0,1.0,-0.0041630929336,0.00413813907653,-0.00429644528776,1.21846967915e-07,0.0,0.0,0.0,1.21846967915e-07,0.0,0.0,0.0,1.21846967915e-07,0.112482398748,0.248835235834,9.68365287781,9e-08,0.0,0.0,0.0,9e-08,0.0,0.0,0.0,9e-08
1560461222737192315,12520,1560461222733395712,base_link,0.0101932304589,0.000948690657121,0.389262750536,0.921069872732,1.0,0.0,0.0,0.0,1.0,0.0,0.0,0.0,1.0,3.39611106028e-05,0.00116593448911,-0.00155765889212,1.21846967915e-07,0.0,0.0,0.0,1.21846967915e-07,0.0,0.0,0.0,1.21846967915e-07,-0.000491760671139,0.0844335481524,9.90097332001,9e-08,0.0,0.0,0.0,9e-08,0.0,0.0,0.0,9e-08
1560461222756670127,12521,1560461222753395712,base_link,0.0102432643657,0.000923479926994,0.389303169364,0.921052297496,1.0,0.0,0.0,0.0,1.0,0.0,0.0,0.0,1.0,0.00252625672147,-0.0066792620346,0.00236920500174,1.21846967915e-07,0.0,0.0,0.0,1.21846967915e-07,0.0,0.0,0.0,1.21846967915e-07,0.0595983229578,0.188814535737,9.75813961029,9e-08,0.0,0.0,0.0,9e-08,0.0,0.0,0.0,9e-08
1560461222777873752,12522,1560461222773393664,base_link,0.0102609653835,0.000920261619984,0.389314570086,0.921047303095,1.0,0.0,0.0,0.0,1.0,0.0,0.0,0.0,1.0,0.000643371953629,0.00372133590281,-0.00275530107319,1.21846967915e-07,0.0,0.0,0.0,1.21846967915e-07,0.0,0.0,0.0,1.21846967915e-07,0.0848224535584,0.235062837601,9.74356079102,9e-08,0.0,0.0,0.0,9e-08,0.0,0.0,0.0,9e-08
1560461222795987850,12523,1560461222793393664,base_link,0.0102257658503,0.000937472351428,0.389312020202,0.921048672867,1.0,0.0,0.0,0.0,1.0,0.0,0.0,0.0,1.0,-0.00304772215895,0.00106811674777,-0.00046156020835,1.21846967915e-07,0.0,0.0,0.0,1.21846967915e-07,0.0,0.0,0.0,1.21846967915e-07,0.0295758135617,0.1254760921,9.84778404236,9e-08,0.0,0.0,0.0,9e-08,0.0,0.0,0.0,9e-08
1560461222817171727,12524,1560461222813393664,base_link,0.0102303338443,0.000916174692767,0.389341501922,0.921036302767,1.0,0.0,0.0,0.0,1.0,0.0,0.0,0.0,1.0,0.000583346176427,-0.00275842426345,0.000468304846436,1.21846967915e-07,0.0,0.0,0.0,1.21846967915e-07,0.0,0.0,0.0,1.21846967915e-07,0.0705246329308,0.232243299484,9.70279788971,9e-08,0.0,0.0,0.0,9e-08,0.0,0.0,0.0,9e-08
1560461222837065028,12525,1560461222833393664,base_link,0.0102370305834,0.000928008079031,0.389347845023,0.921033415708,1.0,0.0,0.0,0.0,1.0,0.0,0.0,0.0,1.0,1.42257194966e-05,0.00116569746751,-0.00230811187066,1.21846967915e-07,0.0,0.0,0.0,1.21846967915e-07,0.0,0.0,0.0,1.21846967915e-07,0.0516252927482,0.191611424088,9.85751056671,9e-08,0.0,0.0,0.0,9e-08,0.0,0.0,0.0,9e-08
1560461222858492059,12526,1560461222853393664,base_link,0.0102430977539,0.000925676172928,0.389362174952,0.921027346562,1.0,0.0,0.0,0.0,1.0,0.0,0.0,0.0,1.0,0.000159060553415,-0.000843361311127,0.000574091507588,1.21846967915e-07,0.0,0.0,0.0,1.21846967915e-07,0.0,0.0,0.0,1.21846967915e-07,0.0715446323156,0.20785048604,9.78035449982,9e-08,0.0,0.0,0.0,9e-08,0.0,0.0,0.0,9e-08
1560461222877870642,12527,1560461222873391616,base_link,0.0102394464539,0.00092342954834,0.389375809457,0.921021635664,1.0,0.0,0.0,0.0,1.0,0.0,0.0,0.0,1.0,-0.00126785656903,0.00180300697684,-0.00249841995537,1.21846967915e-07,0.0,0.0,0.0,1.21846967915e-07,0.0,0.0,0.0,1.21846967915e-07,0.0724722072482,0.232731163502,9.70378398895,9e-08,0.0,0.0,0.0,9e-08,0.0,0.0,0.0,9e-08
1560461222896260317,12528,1560461222893391616,base_link,0.0102450483628,0.000930982724574,0.389373259573,0.921022668262,1.0,0.0,0.0,0.0,1.0,0.0,0.0,0.0,1.0,0.00141215347685,-0.00170249608345,-0.00124585279264,1.21846967915e-07,0.0,0.0,0.0,1.21846967915e-07,0.0,0.0,0.0,1.21846967915e-07,0.0595149323344,0.179650098085,9.84296607971,9e-08,0.0,0.0,0.0,9e-08,0.0,0.0,0.0,9e-08
1560461222917595111,12529,1560461222913391616,base_link,0.0102615258049,0.000926074592356,0.389395260228,0.921013227368,1.0,0.0,0.0,0.0,1.0,0.0,0.0,0.0,1.0,0.00152843014803,0.00149353721645,-0.000516260683071,1.21846967915e-07,0.0,0.0,0.0,1.21846967915e-07,0.0,0.0,0.0,1.21846967915e-07,0.081216789782,0.21821090579,9.75517845154,9e-08,0.0,0.0,0.0,9e-08,0.0,0.0,0.0,9e-08
1560461222936224975,12530,1560461222933391616,base_link,0.0102404639052,0.000934243507705,0.389403900332,0.921009729179,1.0,0.0,0.0,0.0,1.0,0.0,0.0,0.0,1.0,-0.00222041853704,0.00297462195158,-0.00228273170069,1.21846967915e-07,0.0,0.0,0.0,1.21846967915e-07,0.0,0.0,0.0,1.21846967915e-07,0.0542051121593,0.196084573865,9.80188941956,9e-08,0.0,0.0,0.0,9e-08,0.0,0.0,0.0,9e-08
1560461222957019191,12531,1560461222954391616,base_link,0.01023660681,0.000938450948567,0.389411823939,0.921006441725,1.0,0.0,0.0,0.0,1.0,0.0,0.0,0.0,1.0,0.00153365242295,-0.00254909042269,-0.000174569373485,1.21846967915e-07,0.0,0.0,0.0,1.21846967915e-07,0.0,0.0,0.0,1.21846967915e-07,0.0290936864913,0.172301009297,9.81050300598,9e-08,0.0,0.0,0.0,9e-08,0.0,0.0,0.0,9e-08
1560461222978166988,12532,1560461222974390080,base_link,0.0102707250131,0.000921909298343,0.389434646458,0.920996347555,1.0,0.0,0.0,0.0,1.0,0.0,0.0,0.0,1.0,0.00216845865361,-0.00180314981844,-0.00029199506389,1.21846967915e-07,0.0,0.0,0.0,1.21846967915e-07,0.0,0.0,0.0,1.21846967915e-07,0.0714235082269,0.227616846561,9.73261737823,9e-08,0.0,0.0,0.0,9e-08,0.0,0.0,0.0,9e-08
1560461222997401914,12533,1560461222994390080,base_link,0.0102541962045,0.000932923455239,0.389440441649,0.920994092698,1.0,0.0,0.0,0.0,1.0,0.0,0.0,0.0,1.0,-0.0027311781887,0.00362086668611,-0.000677063886542,1.21846967915e-07,0.0,0.0,0.0,1.21846967915e-07,0.0,0.0,0.0,1.21846967915e-07,0.0666683614254,0.188193500042,9.84379863739,9e-08,0.0,0.0,0.0,9e-08,0.0,0.0,0.0,9e-08
1560461223015431839,12534,1560461223010390080,base_link,0.0102240605493,0.000941391679067,0.389444845995,0.920992638632,1.0,0.0,0.0,0.0,1.0,0.0,0.0,0.0,1.0,-0.00155963562429,0.00170332065318,-0.000786159769632,1.21846967915e-07,0.0,0.0,0.0,1.21846967915e-07,0.0,0.0,0.0,1.21846967915e-07,0.0541144646704,0.183230176568,9.79539299011,9e-08,0.0,0.0,0.0,9e-08,0.0,0.0,0.0,9e-08
