%time,field.header.seq,field.header.stamp,field.header.frame_id,field.orientation.x,field.orientation.y,field.orientation.z,field.orientation.w,field.orientation_covariance0,field.orientation_covariance1,field.orientation_covariance2,field.orientation_covariance3,field.orientation_covariance4,field.orientation_covariance5,field.orientation_covariance6,field.orientation_covariance7,field.orientation_covariance8,field.angular_velocity.x,field.angular_velocity.y,field.angular_velocity.z,field.angular_velocity_covariance0,field.angular_velocity_covariance1,field.angular_velocity_covariance2,field.angular_velocity_covariance3,field.angular_velocity_covariance4,field.angular_velocity_covariance5,field.angular_velocity_covariance6,field.angular_velocity_covariance7,field.angular_velocity_covariance8,field.linear_acceleration.x,field.linear_acceleration.y,field.linear_acceleration.z,field.linear_acceleration_covariance0,field.linear_acceleration_covariance1,field.linear_acceleration_covariance2,field.linear_acceleration_covariance3,field.linear_acceleration_covariance4,field.linear_acceleration_covariance5,field.linear_acceleration_covariance6,field.linear_acceleration_covariance7,field.linear_acceleration_covariance8
1560461635163908417,33140,1560461635142682560,base_link,0.00986813238926,0.000318124741832,0.634491269927,0.772867107535,1.0,0.0,0.0,0.0,1.0,0.0,0.0,0.0,1.0,-0.00115086813457,0.00129356363323,0.00704254023731,1.21846967915e-07,0.0,0.0,0.0,1.21846967915e-07,0.0,0.0,0.0,1.21846967915e-07,0.0832361355424,0.144228458405,9.78305244446,9e-08,0.0,0.0,0.0,9e-08,0.0,0.0,0.0,9e-08
1560461635166054254,33141,1560461635162680000,base_link,0.00987243861179,0.000317061192452,0.634568446075,0.772803586966,1.0,0.0,0.0,0.0,1.0,0.0,0.0,0.0,1.0,0.000760078255553,-0.000837045372464,0.00671116448939,1.21846967915e-07,0.0,0.0,0.0,1.21846967915e-07,0.0,0.0,0.0,1.21846967915e-07,0.104489907622,0.167158648372,9.80436038971,9e-08,0.0,0.0,0.0,9e-08,0.0,0.0,0.0,9e-08
1560461635186356267,33142,1560461635182680000,base_link,0.00988465625878,0.000318219242969,0.634650168815,0.772736362743,1.0,0.0,0.0,0.0,1.0,0.0,0.0,0.0,1.0,0.00108236342203,-0.000620448612608,0.00702882185578,1.21846967915e-07,0.0,0.0,0.0,1.21846967915e-07,0.0,0.0,0.0,1.21846967915e-07,0.136103585362,0.157663136721,9.81533145905,9e-08,0.0,0.0,0.0,9e-08,0.0,0.0,0.0,9e-08
1560461635205618077,33143,1560461635202680000,base_link,0.00987841457393,0.000322725004493,0.634731796724,0.772669317644,1.0,0.0,0.0,0.0,1.0,0.0,0.0,0.0,1.0,-3.40840051649e-06,0.00213551800698,0.0058621764183,1.21846967915e-07,0.0,0.0,0.0,1.21846967915e-07,0.0,0.0,0.0,1.21846967915e-07,0.117971926928,0.168058618903,9.81420612335,9e-08,0.0,0.0,0.0,9e-08,0.0,0.0,0.0,9e-08
1560461635226371578,33144,1560461635222680000,base_link,0.0098817306748,0.000323103338313,0.634815358119,0.772600676233,1.0,0.0,0.0,0.0,1.0,0.0,0.0,0.0,1.0,-0.000529967190232,-0.000521303387359,0.00619827816263,1.21846967915e-07,0.0,0.0,0.0,1.21846967915e-07,0.0,0.0,0.0,1.21846967915e-07,0.131852328777,0.141889169812,9.78377342224,9e-08,0.0,0.0,0.0,9e-08,0.0,0.0,0.0,9e-08
1560461635246574684,33145,1560461635242680000,base_link,0.00989558513416,0.000323717760339,0.634896069334,0.772534126359,1.0,0.0,0.0,0.0,1.0,0.0,0.0,0.0,1.0,2.1304920665e-05,-0.000518026063219,0.00726163340732,1.21846967915e-07,0.0,0.0,0.0,1.21846967915e-07,0.0,0.0,0.0,1.21846967915e-07,0.126532509923,0.160533994436,9.81263637543,9e-08,0.0,0.0,0.0,9e-08,0.0,0.0,0.0,9e-08
1560461635266497224,33146,1560461635262677952,base_link,0.00989124631367,0.000315979533098,0.634976669913,0.772468024295,1.0,0.0,0.0,0.0,1.0,0.0,0.0,0.0,1.0,-0.000633837014902,0.000756096909754,0.00598849402741,1.21846967915e-07,0.0,0.0,0.0,1.21846967915e-07,0.0,0.0,0.0,1.21846967915e-07,0.121606439352,0.152395114303,9.80230712891,9e-08,0.0,0.0,0.0,9e-08,0.0,0.0,0.0,9e-08
1560461635288061656,33147,1560461635283677952,base_link,0.00989556175583,0.000316007191967,0.635063065684,0.772396885683,1.0,0.0,0.0,0.0,1.0,0.0,0.0,0.0,1.0,0.000865868991241,-3.12122283503e-05,0.00805444922298,1.21846967915e-07,0.0,0.0,0.0,1.21846967915e-07,0.0,0.0,0.0,1.21846967915e-07,0.125184476376,0.142829924822,9.82497882843,9e-08,0.0,0.0,0.0,9e-08,0.0,0.0,0.0,9e-08
1560461635307260018,33148,1560461635303677952,base_link,0.00989493350437,0.000310703933044,0.635150362344,0.772325099064,1.0,0.0,0.0,0.0,1.0,0.0,0.0,0.0,1.0,-0.00158143555745,0.000339621445164,0.00707261823118,1.21846967915e-07,0.0,0.0,0.0,1.21846967915e-07,0.0,0.0,0.0,1.21846967915e-07,0.131357163191,0.14187386632,9.82680606842,9e-08,0.0,0.0,0.0,9e-08,0.0,0.0,0.0,9e-08
1560461635327838936,33149,1560461635323677952,base_link,0.00988842379191,0.000311297281646,0.635232601383,0.772257527129,1.0,0.0,0.0,0.0,1.0,0.0,0.0,0.0,1.0,-0.000521480862517,0.00118733278941,0.00746096437797,1.21846967915e-07,0.0,0.0,0.0,1.21846967915e-07,0.0,0.0,0.0,1.21846967915e-07,0.122490808368,0.143548339605,9.84296703339,9e-08,0.0,0.0,0.0,9e-08,0.0,0.0,0.0,9e-08
1560461635347296712,33150,1560461635343677952,base_link,0.00988378237022,0.000307988095493,0.635315377793,0.772189502115,1.0,0.0,0.0,0.0,1.0,0.0,0.0,0.0,1.0,0.000548596086446,0.000229966477491,0.00693485001102,1.21846967915e-07,0.0,0.0,0.0,1.21846967915e-07,0.0,0.0,0.0,1.21846967915e-07,0.108183033764,0.15896204114,9.80436038971,9e-08,0.0,0.0,0.0,9e-08,0.0,0.0,0.0,9e-08
1560461635367609752,33151,1560461635363675648,base_link,0.00988767700244,0.000307635774181,0.635396858188,0.772122351649,1.0,0.0,0.0,0.0,1.0,0.0,0.0,0.0,1.0,0.000231028418057,0.000973439426161,0.00704474980012,1.21846967915e-07,0.0,0.0,0.0,1.21846967915e-07,0.0,0.0,0.0,1.21846967915e-07,0.130849152803,0.180918604136,9.82608222961,9e-08,0.0,0.0,0.0,9e-08,0.0,0.0,0.0,9e-08
1560461635388131447,33152,1560461635383675648,base_link,0.00988371717431,0.000310761884961,0.635478127849,0.772055580504,1.0,0.0,0.0,0.0,1.0,0.0,0.0,0.0,1.0,-9.73075511865e-05,0.000331458984874,0.00630802195519,1.21846967915e-07,0.0,0.0,0.0,1.21846967915e-07,0.0,0.0,0.0,1.21846967915e-07,0.0894093960524,0.134290963411,9.82642936707,9e-08,0.0,0.0,0.0,9e-08,0.0,0.0,0.0,9e-08
1560461635407159072,33153,1560461635403675648,base_link,0.00988517519185,0.000315616016529,0.635556204885,0.77199124334,1.0,0.0,0.0,0.0,1.0,0.0,0.0,0.0,1.0,0.00162603810895,-0.000297000282444,0.0079930992797,1.21846967915e-07,0.0,0.0,0.0,1.21846967915e-07,0.0,0.0,0.0,1.21846967915e-07,0.127582773566,0.163859397173,9.83041858673,9e-08,0.0,0.0,0.0,9e-08,0.0,0.0,0.0,9e-08
1560461635427622910,33154,1560461635423675648,base_link,0.00987888543325,0.000316841567859,0.635637564108,0.771924466927,1.0,0.0,0.0,0.0,1.0,0.0,0.0,0.0,1.0,-0.000838927400764,0.00129635969643,0.00685684755445,1.21846967915e-07,0.0,0.0,0.0,1.21846967915e-07,0.0,0.0,0.0,1.21846967915e-07,0.124012738466,0.180756270885,9.776055336,9e-08,0.0,0.0,0.0,9e-08,0.0,0.0,0.0,9e-08
1560461635448125141,33155,1560461635443675648,base_link,0.00987103031436,0.000317888653626,0.635715251287,0.771860435327,1.0,0.0,0.0,0.0,1.0,0.0,0.0,0.0,1.0,0.000422027136665,-0.000415792746935,0.00545874331146,1.21846967915e-07,0.0,0.0,0.0,1.21846967915e-07,0.0,0.0,0.0,1.21846967915e-07,0.0948789268732,0.137385591865,9.7724647522,9e-08,0.0,0.0,0.0,9e-08,0.0,0.0,0.0,9e-08
1560461635466890528,33156,1560461635463671808,base_link,0.00988085513988,0.000318702614638,0.635801899939,0.771789043834,1.0,0.0,0.0,0.0,1.0,0.0,0.0,0.0,1.0,0.00228229979984,-0.000402424717322,0.00929577276111,1.21846967915e-07,0.0,0.0,0.0,1.21846967915e-07,0.0,0.0,0.0,1.21846967915e-07,0.148987933993,0.168273627758,9.79502105713,9e-08,0.0,0.0,0.0,9e-08,0.0,0.0,0.0,9e-08
1560461635487792678,33157,1560461635484671808,base_link,0.00987889860414,0.000314340415817,0.635879160381,0.771725438971,1.0,0.0,0.0,0.0,1.0,0.0,0.0,0.0,1.0,0.000954318791628,-0.000207976438105,0.00548312161118,1.21846967915e-07,0.0,0.0,0.0,1.21846967915e-07,0.0,0.0,0.0,1.21846967915e-07,0.136627689004,0.196724116802,9.83142185211,9e-08,0.0,0.0,0.0,9e-08,0.0,0.0,0.0,9e-08
1560461635507599635,33158,1560461635504671808,base_link,0.0098685103938,0.000302945949468,0.635950119868,0.771667039244,1.0,0.0,0.0,0.0,1.0,0.0,0.0,0.0,1.0,-0.0019139383221,-0.0010613698978,0.00573882553726,1.21846967915e-07,0.0,0.0,0.0,1.21846967915e-07,0.0,0.0,0.0,1.21846967915e-07,0.140334397554,0.127827078104,9.78714561462,9e-08,0.0,0.0,0.0,9e-08,0.0,0.0,0.0,9e-08
1560461635528464579,33159,1560461635524671808,base_link,0.00986533127019,0.000300929815457,0.636025589069,0.771604888448,1.0,0.0,0.0,0.0,1.0,0.0,0.0,0.0,1.0,-0.00157118437346,-0.000303366337903,0.00775455310941,1.21846967915e-07,0.0,0.0,0.0,1.21846967915e-07,0.0,0.0,0.0,1.21846967915e-07,0.15514563024,0.137977823615,9.82587432861,9e-08,0.0,0.0,0.0,9e-08,0.0,0.0,0.0,9e-08
1560461635547951733,33160,1560461635544671808,base_link,0.00985104546418,0.000305297282634,0.636095969038,0.77154706824,1.0,0.0,0.0,0.0,1.0,0.0,0.0,0.0,1.0,-0.000834008853417,0.00235273176804,0.00709121767431,1.21846967915e-07,0.0,0.0,0.0,1.21846967915e-07,0.0,0.0,0.0,1.21846967915e-07,0.0972684174776,0.11540903151,9.778881073,9e-08,0.0,0.0,0.0,9e-08,0.0,0.0,0.0,9e-08
1560461635568407036,33161,1560461635564669760,base_link,0.00985164967877,0.000299080951751,0.636170616375,0.771485486426,1.0,0.0,0.0,0.0,1.0,0.0,0.0,0.0,1.0,-0.000503947143443,-0.000622258405201,0.00785035546869,1.21846967915e-07,0.0,0.0,0.0,1.21846967915e-07,0.0,0.0,0.0,1.21846967915e-07,0.128350481391,0.122551754117,9.78839588165,9e-08,0.0,0.0,0.0,9e-08,0.0,0.0,0.0,9e-08
1560461635586537884,33162,1560461635584669760,base_link,0.00985650743233,0.000295768143603,0.636253519226,0.771417082091,1.0,0.0,0.0,0.0,1.0,0.0,0.0,0.0,1.0,0.000352841569111,-0.000832539401017,0.00805535167456,1.21846967915e-07,0.0,0.0,0.0,1.21846967915e-07,0.0,0.0,0.0,1.21846967915e-07,0.106235146523,0.160665601492,9.80974674225,9e-08,0.0,0.0,0.0,9e-08,0.0,0.0,0.0,9e-08
1560461635607707682,33163,1560461635604669760,base_link,0.00985048570135,0.000299812265427,0.636322961427,0.771359946769,1.0,0.0,0.0,0.0,1.0,0.0,0.0,0.0,1.0,-0.000627714616712,0.000109275220893,0.00635928008705,1.21846967915e-07,0.0,0.0,0.0,1.21846967915e-07,0.0,0.0,0.0,1.21846967915e-07,0.108461380005,0.11169539392,9.79771614075,9e-08,0.0,0.0,0.0,9e-08,0.0,0.0,0.0,9e-08
1560461635626970672,33164,1560461635624669760,base_link,0.00985663420215,0.000305269953037,0.636402661118,0.771294071245,1.0,0.0,0.0,0.0,1.0,0.0,0.0,0.0,1.0,0.0018511567032,0.000977276824415,0.00877195876092,1.21846967915e-07,0.0,0.0,0.0,1.21846967915e-07,0.0,0.0,0.0,1.21846967915e-07,0.110282748938,0.131240695715,9.82917690277,9e-08,0.0,0.0,0.0,9e-08,0.0,0.0,0.0,9e-08
1560461635648194425,33165,1560461635644669760,base_link,0.0098553566258,0.000304631823408,0.636477756265,0.771232041621,1.0,0.0,0.0,0.0,1.0,0.0,0.0,0.0,1.0,-0.00116863392759,-0.000416081340518,0.00616226764396,1.21846967915e-07,0.0,0.0,0.0,1.21846967915e-07,0.0,0.0,0.0,1.21846967915e-07,0.139641061425,0.134177386761,9.7585515976,9e-08,0.0,0.0,0.0,9e-08,0.0,0.0,0.0,9e-08
1560461635667605057,33166,1560461635664666176,base_link,0.00985329571076,0.000309821483403,0.636547203734,0.771174732444,1.0,0.0,0.0,0.0,1.0,0.0,0.0,0.0,1.0,0.000526853196789,0.000437328708358,0.00570123828948,1.21846967915e-07,0.0,0.0,0.0,1.21846967915e-07,0.0,0.0,0.0,1.21846967915e-07,0.129922300577,0.116807371378,9.80722808838,9e-08,0.0,0.0,0.0,9e-08,0.0,0.0,0.0,9e-08
1560461635687345886,33167,1560461635684666176,base_link,0.00986802899777,0.000307354246404,0.636617267602,0.771116806869,1.0,0.0,0.0,0.0,1.0,0.0,0.0,0.0,1.0,0.00138144590892,-0.00105344224721,0.00580902351066,1.21846967915e-07,0.0,0.0,0.0,1.21846967915e-07,0.0,0.0,0.0,1.21846967915e-07,0.104037836194,0.183449089527,9.83554649353,9e-08,0.0,0.0,0.0,9e-08,0.0,0.0,0.0,9e-08
1560461635708346758,33168,1560461635704666176,base_link,0.00987097302099,0.000309511967485,0.636686683461,0.771059445008,1.0,0.0,0.0,0.0,1.0,0.0,0.0,0.0,1.0,-0.00117181637324,0.00118064985145,0.00583245232701,1.21846967915e-07,0.0,0.0,0.0,1.21846967915e-07,0.0,0.0,0.0,1.21846967915e-07,0.106320209801,0.175117880106,9.79172801971,9e-08,0.0,0.0,0.0,9e-08,0.0,0.0,0.0,9e-08
1560461635727554477,33169,1560461635724666176,base_link,0.00986721240258,0.000310598895195,0.636754155297,0.771003774289,1.0,0.0,0.0,0.0,1.0,0.0,0.0,0.0,1.0,0.0014973746147,-0.00190369831398,0.00719358073547,1.21846967915e-07,0.0,0.0,0.0,1.21846967915e-07,0.0,0.0,0.0,1.21846967915e-07,0.110930748284,0.133678108454,9.78601932526,9e-08,0.0,0.0,0.0,9e-08,0.0,0.0,0.0,9e-08
1560461635748115565,33170,1560461635744666176,base_link,0.00988056439248,0.000306185988447,0.636826837538,0.770943567516,1.0,0.0,0.0,0.0,1.0,0.0,0.0,0.0,1.0,-7.04525664332e-05,0.000546847004443,0.00816660095006,1.21846967915e-07,0.0,0.0,0.0,1.21846967915e-07,0.0,0.0,0.0,1.21846967915e-07,0.0970585942268,0.144979253411,9.74360942841,9e-08,0.0,0.0,0.0,9e-08,0.0,0.0,0.0,9e-08
1560461635768367452,33171,1560461635764664128,base_link,0.00986670993312,0.000308299257773,0.636901226725,0.770882243852,1.0,0.0,0.0,0.0,1.0,0.0,0.0,0.0,1.0,-0.00210557156242,0.00342062697746,0.00753693422303,1.21846967915e-07,0.0,0.0,0.0,1.21846967915e-07,0.0,0.0,0.0,1.21846967915e-07,0.102092973888,0.19178634882,9.69397830963,9e-08,0.0,0.0,0.0,9e-08,0.0,0.0,0.0,9e-08
1560461635788312224,33172,1560461635784664128,base_link,0.00989565065934,0.000286234394761,0.636967718647,0.770826962991,1.0,0.0,0.0,0.0,1.0,0.0,0.0,0.0,1.0,0.00151455798186,-0.00424282811582,0.00773730687797,1.21846967915e-07,0.0,0.0,0.0,1.21846967915e-07,0.0,0.0,0.0,1.21846967915e-07,0.187967762351,0.118278056383,9.91969203949,9e-08,0.0,0.0,0.0,9e-08,0.0,0.0,0.0,9e-08
1560461635808131484,33173,1560461635804664128,base_link,0.00986424335466,0.000310281806015,0.637045806221,0.770762783878,1.0,0.0,0.0,0.0,1.0,0.0,0.0,0.0,1.0,-0.00128232955467,-0.000204004114494,0.00573973078281,1.21846967915e-07,0.0,0.0,0.0,1.21846967915e-07,0.0,0.0,0.0,1.21846967915e-07,0.0819212198257,0.194044843316,9.65321445465,9e-08,0.0,0.0,0.0,9e-08,0.0,0.0,0.0,9e-08
1560461635827360626,33174,1560461635824664128,base_link,0.00987515148589,0.000288557739785,0.637108078189,0.770711132915,1.0,0.0,0.0,0.0,1.0,0.0,0.0,0.0,1.0,0.000639784964733,-0.0048736333847,0.00626738276333,1.21846967915e-07,0.0,0.0,0.0,1.21846967915e-07,0.0,0.0,0.0,1.21846967915e-07,0.0543935149908,0.0730689540505,9.93906497955,9e-08,0.0,0.0,0.0,9e-08,0.0,0.0,0.0,9e-08
1560461635848022471,33175,1560461635844664128,base_link,0.00989306653069,0.000295093794027,0.637189116042,0.770644003522,1.0,0.0,0.0,0.0,1.0,0.0,0.0,0.0,1.0,-0.000280341657344,0.00682682543993,0.00836141593754,1.21846967915e-07,0.0,0.0,0.0,1.21846967915e-07,0.0,0.0,0.0,1.21846967915e-07,0.105791404843,0.219769150019,9.71533489227,9e-08,0.0,0.0,0.0,9e-08,0.0,0.0,0.0,9e-08
1560461635867595198,33176,1560461635864659264,base_link,0.00987382879925,0.000300888656425,0.637251540793,0.770592621245,1.0,0.0,0.0,0.0,1.0,0.0,0.0,0.0,1.0,-0.000665467407089,0.00201608007774,0.00391516042873,1.21846967915e-07,0.0,0.0,0.0,1.21846967915e-07,0.0,0.0,0.0,1.21846967915e-07,0.150032773614,0.140412002802,9.78411579132,9e-08,0.0,0.0,0.0,9e-08,0.0,0.0,0.0,9e-08
1560461635887646117,33177,1560461635884659264,base_link,0.00987620812056,0.000301339759413,0.637322948091,0.770533520827,1.0,0.0,0.0,0.0,1.0,0.0,0.0,0.0,1.0,0.00153068325017,0.00130315427668,0.0089989118278,1.21846967915e-07,0.0,0.0,0.0,1.21846967915e-07,0.0,0.0,0.0,1.21846967915e-07,0.158003509045,0.128300413489,9.85018348694,9e-08,0.0,0.0,0.0,9e-08,0.0,0.0,0.0,9e-08
1560461635906565480,33178,1560461635904659264,base_link,0.00988834147384,0.000298802716696,0.637398765004,0.770470685144,1.0,0.0,0.0,0.0,1.0,0.0,0.0,0.0,1.0,-0.000214816041989,-0.00212349486537,0.00552586792037,1.21846967915e-07,0.0,0.0,0.0,1.21846967915e-07,0.0,0.0,0.0,1.21846967915e-07,0.122715599835,0.205754652619,9.74118518829,9e-08,0.0,0.0,0.0,9e-08,0.0,0.0,0.0,9e-08
1560461635928532849,33179,1560461635924659264,base_link,0.009862994425,0.000294328236036,0.637465478196,0.770415773069,1.0,0.0,0.0,0.0,1.0,0.0,0.0,0.0,1.0,-0.00264232093468,0.00182648107875,0.00746161630377,1.21846967915e-07,0.0,0.0,0.0,1.21846967915e-07,0.0,0.0,0.0,1.21846967915e-07,0.119899459183,0.0484209693968,9.85574913025,9e-08,0.0,0.0,0.0,9e-08,0.0,0.0,0.0,9e-08
1560461635948215634,33180,1560461635945659264,base_link,0.00988167766197,0.000295137916509,0.637548175582,0.770347068438,1.0,0.0,0.0,0.0,1.0,0.0,0.0,0.0,1.0,0.00210022553802,-0.00624300492927,0.0078608551994,1.21846967915e-07,0.0,0.0,0.0,1.21846967915e-07,0.0,0.0,0.0,1.21846967915e-07,0.097259297967,0.189940959215,9.75784873962,9e-08,0.0,0.0,0.0,9e-08,0.0,0.0,0.0,9e-08
1560461635969048243,33181,1560461635965656960,base_link,0.00990405566289,0.000281151748248,0.637618829505,0.770288299926,1.0,0.0,0.0,0.0,1.0,0.0,0.0,0.0,1.0,-0.00104233261663,0.00384985259734,0.00764456158504,1.21846967915e-07,0.0,0.0,0.0,1.21846967915e-07,0.0,0.0,0.0,1.21846967915e-07,0.108144260943,0.15499022603,9.86666965485,9e-08,0.0,0.0,0.0,9e-08,0.0,0.0,0.0,9e-08
1560461635988506957,33182,1560461635985656960,base_link,0.0098752403894,0.000293922243347,0.637689067228,0.77023053767,1.0,0.0,0.0,0.0,1.0,0.0,0.0,0.0,1.0,0.000312391086482,0.00214276392944,0.00550827709958,1.21846967915e-07,0.0,0.0,0.0,1.21846967915e-07,0.0,0.0,0.0,1.21846967915e-07,0.0603317096829,0.160565406084,9.74046707153,9e-08,0.0,0.0,0.0,9e-08,0.0,0.0,0.0,9e-08
1560461636008613535,33183,1560461636005656960,base_link,0.00991714094227,0.000289817535429,0.637761175217,0.770170230798,1.0,0.0,0.0,0.0,1.0,0.0,0.0,0.0,1.0,0.00278600654565,-0.00126712024212,0.00697858259082,1.21846967915e-07,0.0,0.0,0.0,1.21846967915e-07,0.0,0.0,0.0,1.21846967915e-07,0.130509078503,0.135799497366,9.83438587189,9e-08,0.0,0.0,0.0,9e-08,0.0,0.0,0.0,9e-08
1560461636028470547,33184,1560461636025656960,base_link,0.00990322194555,0.0002964220783,0.637838546294,0.770106346712,1.0,0.0,0.0,0.0,1.0,0.0,0.0,0.0,1.0,-0.000518886838108,0.0033185321372,0.00689993798733,1.21846967915e-07,0.0,0.0,0.0,1.21846967915e-07,0.0,0.0,0.0,1.21846967915e-07,0.0944971144199,0.151873022318,9.81165027618,9e-08,0.0,0.0,0.0,9e-08,0.0,0.0,0.0,9e-08
1560461636048289511,33185,1560461636045656960,base_link,0.00989466317185,0.000295099391655,0.637906697748,0.770050164963,1.0,0.0,0.0,0.0,1.0,0.0,0.0,0.0,1.0,-0.000531106488779,0.00128964125179,0.00638283556327,1.21846967915e-07,0.0,0.0,0.0,1.21846967915e-07,0.0,0.0,0.0,1.21846967915e-07,0.127087339759,0.130828887224,9.81618595123,9e-08,0.0,0.0,0.0,9e-08,0.0,0.0,0.0,9e-08
1560461636068210757,33186,1560461636065655168,base_link,0.00990816366353,0.000297378284925,0.637983673699,0.769986085948,1.0,0.0,0.0,0.0,1.0,0.0,0.0,0.0,1.0,0.00161757261958,-0.0040302593261,0.00712318113074,1.21846967915e-07,0.0,0.0,0.0,1.21846967915e-07,0.0,0.0,0.0,1.21846967915e-07,0.114941425622,0.16485273838,9.83773899078,9e-08,0.0,0.0,0.0,9e-08,0.0,0.0,0.0,9e-08
1560461636088244362,33187,1560461636085655168,base_link,0.0099095133505,0.000294367748707,0.638048685213,0.769932285496,1.0,0.0,0.0,0.0,1.0,0.0,0.0,0.0,1.0,-0.000330559152644,0.00245760404505,0.00563384452835,1.21846967915e-07,0.0,0.0,0.0,1.21846967915e-07,0.0,0.0,0.0,1.21846967915e-07,0.120614133775,0.153383567929,9.83198928833,9e-08,0.0,0.0,0.0,9e-08,0.0,0.0,0.0,9e-08
1560461636108074142,33188,1560461636105655168,base_link,0.00988097631207,0.000301332186151,0.638128711541,0.769866251921,1.0,0.0,0.0,0.0,1.0,0.0,0.0,0.0,1.0,-0.000715479429346,0.000234930193983,0.00842455402017,1.21846967915e-07,0.0,0.0,0.0,1.21846967915e-07,0.0,0.0,0.0,1.21846967915e-07,0.130043670535,0.144319042563,9.75547409058,9e-08,0.0,0.0,0.0,9e-08,0.0,0.0,0.0,9e-08
1560461636129231621,33189,1560461636125655168,base_link,0.00989167041633,0.000288347005543,0.638207015117,0.769801182456,1.0,0.0,0.0,0.0,1.0,0.0,0.0,0.0,1.0,0.000353101087967,0.000770903076045,0.00881668459624,1.21846967915e-07,0.0,0.0,0.0,1.21846967915e-07,0.0,0.0,0.0,1.21846967915e-07,0.148972153664,0.145576775074,9.89918804169,9e-08,0.0,0.0,0.0,9e-08,0.0,0.0,0.0,9e-08
1560461636148130847,33190,1560461636145655168,base_link,0.00988176261421,0.000291767485717,0.638280355902,0.769740570019,1.0,0.0,0.0,0.0,1.0,0.0,0.0,0.0,1.0,-0.00075514317723,0.000655320007354,0.00532970484346,1.21846967915e-07,0.0,0.0,0.0,1.21846967915e-07,0.0,0.0,0.0,1.21846967915e-07,0.10242497921,0.154443740845,9.76346969604,9e-08,0.0,0.0,0.0,9e-08,0.0,0.0,0.0,9e-08
1560461636169150844,33191,1560461636165653120,base_link,0.00987950150164,0.000294933438439,0.638345736201,0.769686316488,1.0,0.0,0.0,0.0,1.0,0.0,0.0,0.0,1.0,0.00204508611932,-0.000615154509433,0.00753186177462,1.21846967915e-07,0.0,0.0,0.0,1.21846967915e-07,0.0,0.0,0.0,1.21846967915e-07,0.106248229742,0.132185980678,9.74520206451,9e-08,0.0,0.0,0.0,9e-08,0.0,0.0,0.0,9e-08
1560461636186409936,33192,1560461636182653120,base_link,0.00989251532894,0.00029393146297,0.638408682519,0.76963407547,1.0,0.0,0.0,0.0,1.0,0.0,0.0,0.0,1.0,0.00160873041023,-0.00136708852369,0.00700789084658,1.21846967915e-07,0.0,0.0,0.0,1.21846967915e-07,0.0,0.0,0.0,1.21846967915e-07,0.127954423428,0.12947639823,9.82589817047,9e-08,0.0,0.0,0.0,9e-08,0.0,0.0,0.0,9e-08
1560461636209595891,33193,1560461636206653120,base_link,0.00988204051999,0.000302441175103,0.638505193534,0.769554001726,1.0,0.0,0.0,0.0,1.0,0.0,0.0,0.0,1.0,-0.0010480893543,0.00236016768031,0.00724229123443,1.21846967915e-07,0.0,0.0,0.0,1.21846967915e-07,0.0,0.0,0.0,1.21846967915e-07,0.113721482456,0.142196387053,9.83309745789,9e-08,0.0,0.0,0.0,9e-08,0.0,0.0,0.0,9e-08
1560461636226441267,33194,1560461636222653120,base_link,0.00986934773315,0.000310389807314,0.638564836593,0.769504811085,1.0,0.0,0.0,0.0,1.0,0.0,0.0,0.0,1.0,-0.000305512803607,0.00087296240963,0.00713146943599,1.21846967915e-07,0.0,0.0,0.0,1.21846967915e-07,0.0,0.0,0.0,1.21846967915e-07,0.118317037821,0.115284413099,9.74393177032,9e-08,0.0,0.0,0.0,9e-08,0.0,0.0,0.0,9e-08
1560461636250249354,33195,1560461636246653120,base_link,0.00989443663254,0.0003032778559,0.638656674576,0.769428145968,1.0,0.0,0.0,0.0,1.0,0.0,0.0,0.0,1.0,0.00108133663889,-0.000620967475697,0.00754536129534,1.21846967915e-07,0.0,0.0,0.0,1.21846967915e-07,0.0,0.0,0.0,1.21846967915e-07,0.124677598476,0.158927083015,9.83332920074,9e-08,0.0,0.0,0.0,9e-08,0.0,0.0,0.0,9e-08
1560461636267447910,33196,1560461636263649536,base_link,0.00987584262836,0.000310747067709,0.638714152341,0.769380783447,1.0,0.0,0.0,0.0,1.0,0.0,0.0,0.0,1.0,-0.00202146475203,0.000432279193774,0.00546515593305,1.21846967915e-07,0.0,0.0,0.0,1.21846967915e-07,0.0,0.0,0.0,1.21846967915e-07,0.106271378696,0.15421576798,9.76930809021,9e-08,0.0,0.0,0.0,9e-08,0.0,0.0,0.0,9e-08
1560461636288430846,33197,1560461636283649536,base_link,0.00987503689915,0.000313230768321,0.638794958386,0.76931363298,1.0,0.0,0.0,0.0,1.0,0.0,0.0,0.0,1.0,0.000130401458591,-0.000630483089481,0.00713153230026,1.21846967915e-07,0.0,0.0,0.0,1.21846967915e-07,0.0,0.0,0.0,1.21846967915e-07,0.133701533079,0.136071398854,9.78468513489,9e-08,0.0,0.0,0.0,9e-08,0.0,0.0,0.0,9e-08
1560461636307340627,33198,1560461636303649536,base_link,0.00988414852096,0.000304875155604,0.63887672854,0.769245602699,1.0,0.0,0.0,0.0,1.0,0.0,0.0,0.0,1.0,-9.52150148805e-05,-0.000740504998248,0.00768094649538,1.21846967915e-07,0.0,0.0,0.0,1.21846967915e-07,0.0,0.0,0.0,1.21846967915e-07,0.107792675495,0.195091575384,9.75217247009,9e-08,0.0,0.0,0.0,9e-08,0.0,0.0,0.0,9e-08
1560461636327441587,33199,1560461636323649536,base_link,0.00986000397439,0.000310051644709,0.638945433172,0.769188783478,1.0,0.0,0.0,0.0,1.0,0.0,0.0,0.0,1.0,-0.002140190918,0.00181737390812,0.00513433199376,1.21846967915e-07,0.0,0.0,0.0,1.21846967915e-07,0.0,0.0,0.0,1.21846967915e-07,0.0838394016027,0.11265861243,9.80989074707,9e-08,0.0,0.0,0.0,9e-08,0.0,0.0,0.0,9e-08
1560461636347229380,33200,1560461636343649536,base_link,0.00985022228354,0.000312424051299,0.639024047581,0.769123656061,1.0,0.0,0.0,0.0,1.0,0.0,0.0,0.0,1.0,0.000669475994073,0.00022936577443,0.00807274878025,1.21846967915e-07,0.0,0.0,0.0,1.21846967915e-07,0.0,0.0,0.0,1.21846967915e-07,0.106647476554,0.117162883282,9.77534294128,9e-08,0.0,0.0,0.0,9e-08,0.0,0.0,0.0,9e-08
1560461636366990430,33201,1560461636363647488,base_link,0.00986686864234,0.000318569259375,0.639099427219,0.769060920477,1.0,0.0,0.0,0.0,1.0,0.0,0.0,0.0,1.0,0.000643326609861,0.000758155132644,0.00585246644914,1.21846967915e-07,0.0,0.0,0.0,1.21846967915e-07,0.0,0.0,0.0,1.21846967915e-07,0.132098287344,0.127923369408,9.82717132568,9e-08,0.0,0.0,0.0,9e-08,0.0,0.0,0.0,9e-08
1560461636385967169,33202,1560461636383647488,base_link,0.00984643631117,0.000331310449243,0.639173200009,0.768999707448,1.0,0.0,0.0,0.0,1.0,0.0,0.0,0.0,1.0,-0.00212103594095,0.00171951809898,0.00662674242631,1.21846967915e-07,0.0,0.0,0.0,1.21846967915e-07,0.0,0.0,0.0,1.21846967915e-07,0.120777472854,0.159596338868,9.79751873016,9e-08,0.0,0.0,0.0,9e-08,0.0,0.0,0.0,9e-08
1560461636406739251,33203,1560461636403647488,base_link,0.00986347318686,0.00033393507838,0.639248073886,0.768937224745,1.0,0.0,0.0,0.0,1.0,0.0,0.0,0.0,1.0,0.000638579600491,-0.00190320727415,0.00618713255972,1.21846967915e-07,0.0,0.0,0.0,1.21846967915e-07,0.0,0.0,0.0,1.21846967915e-07,0.100139603019,0.142330020666,9.85686779022,9e-08,0.0,0.0,0.0,9e-08,0.0,0.0,0.0,9e-08
1560461636427470476,33204,1560461636423647488,base_link,0.00987532764655,0.000340817527033,0.639323458793,0.768874483892,1.0,0.0,0.0,0.0,1.0,0.0,0.0,0.0,1.0,-0.000637327379081,0.000655077397823,0.00629050051793,1.21846967915e-07,0.0,0.0,0.0,1.21846967915e-07,0.0,0.0,0.0,1.21846967915e-07,0.115106716752,0.156575158238,9.77311134338,9e-08,0.0,0.0,0.0,9e-08,0.0,0.0,0.0,9e-08
1560461636448424315,33205,1560461636443647488,base_link,0.00987421075506,0.000335950224574,0.639396978702,0.768813355157,1.0,0.0,0.0,0.0,1.0,0.0,0.0,0.0,1.0,0.000739235780202,-0.00104362971615,0.00642413226888,1.21846967915e-07,0.0,0.0,0.0,1.21846967915e-07,0.0,0.0,0.0,1.21846967915e-07,0.119804516435,0.158047914505,9.81187057495,9e-08,0.0,0.0,0.0,9e-08,0.0,0.0,0.0,9e-08
1560461636467571669,33206,1560461636463647232,base_link,0.00988647384162,0.000336623586334,0.639472563806,0.768750329813,1.0,0.0,0.0,0.0,1.0,0.0,0.0,0.0,1.0,-0.000322151376167,-0.000734973291401,0.00600488018245,1.21846967915e-07,0.0,0.0,0.0,1.21846967915e-07,0.0,0.0,0.0,1.21846967915e-07,0.0915128737688,0.155885845423,9.75629615784,9e-08,0.0,0.0,0.0,9e-08,0.0,0.0,0.0,9e-08
1560461636487035324,33207,1560461636483647232,base_link,0.00989351895077,0.000339321643183,0.639550029714,0.768685760841,1.0,0.0,0.0,0.0,1.0,0.0,0.0,0.0,1.0,2.1058760467e-05,-0.000619717233349,0.00781109323725,1.21846967915e-07,0.0,0.0,0.0,1.21846967915e-07,0.0,0.0,0.0,1.21846967915e-07,0.0928944945335,0.162571147084,9.85964107513,9e-08,0.0,0.0,0.0,9e-08,0.0,0.0,0.0,9e-08
1560461636506667396,33208,1560461636503647232,base_link,0.00988514226462,0.000341128689313,0.639621305303,0.768626539251,1.0,0.0,0.0,0.0,1.0,0.0,0.0,0.0,1.0,-0.00147744151764,0.000973627786152,0.00718649942428,1.21846967915e-07,0.0,0.0,0.0,1.21846967915e-07,0.0,0.0,0.0,1.21846967915e-07,0.0868140906096,0.120409086347,9.79803085327,9e-08,0.0,0.0,0.0,9e-08,0.0,0.0,0.0,9e-08
1560461636527447730,33209,1560461636523647232,base_link,0.00988663716066,0.000336769783215,0.639693097191,0.768566885655,1.0,0.0,0.0,0.0,1.0,0.0,0.0,0.0,1.0,0.00127154355869,-0.00062981643714,0.00566745456308,1.21846967915e-07,0.0,0.0,0.0,1.21846967915e-07,0.0,0.0,0.0,1.21846967915e-07,0.114421993494,0.163360983133,9.83138465881,9e-08,0.0,0.0,0.0,9e-08,0.0,0.0,0.0,9e-08
1560461636546907541,33210,1560461636543647232,base_link,0.00988855286663,0.000330315388492,0.63976594275,0.768506178388,1.0,0.0,0.0,0.0,1.0,0.0,0.0,0.0,1.0,0.000435127672972,0.00141365395393,0.00631726998836,1.21846967915e-07,0.0,0.0,0.0,1.21846967915e-07,0.0,0.0,0.0,1.21846967915e-07,0.123213998973,0.15539804101,9.80905342102,9e-08,0.0,0.0,0.0,9e-08,0.0,0.0,0.0,9e-08
1560461636567043392,33211,1560461636563644416,base_link,0.00988991341959,0.000337159641563,0.63984154366,0.768443221533,1.0,0.0,0.0,0.0,1.0,0.0,0.0,0.0,1.0,0.00108602445107,0.000971537432633,0.00790141895413,1.21846967915e-07,0.0,0.0,0.0,1.21846967915e-07,0.0,0.0,0.0,1.21846967915e-07,0.0997957140207,0.134311765432,9.83602905273,9e-08,0.0,0.0,0.0,9e-08,0.0,0.0,0.0,9e-08
1560461636586322891,33212,1560461636583644416,base_link,0.00989488641844,0.000330998628419,0.63991627529,0.768380881076,1.0,0.0,0.0,0.0,1.0,0.0,0.0,0.0,1.0,0.000534070422873,-0.00126814702526,0.00642699981108,1.21846967915e-07,0.0,0.0,0.0,1.21846967915e-07,0.0,0.0,0.0,1.21846967915e-07,0.0923978462815,0.18502484262,9.78265476227,9e-08,0.0,0.0,0.0,9e-08,0.0,0.0,0.0,9e-08
1560461636608583366,33213,1560461636603644416,base_link,0.00990945704495,0.000329816211755,0.639989884761,0.768319494191,1.0,0.0,0.0,0.0,1.0,0.0,0.0,0.0,1.0,0.00182185845915,0.000549352378584,0.00736468937248,1.21846967915e-07,0.0,0.0,0.0,1.21846967915e-07,0.0,0.0,0.0,1.21846967915e-07,0.121270433068,0.161770880222,9.81528663635,9e-08,0.0,0.0,0.0,9e-08,0.0,0.0,0.0,9e-08
1560461636626433791,33214,1560461636623644416,base_link,0.00989559929287,0.000342100042462,0.640056028972,0.768264476749,1.0,0.0,0.0,0.0,1.0,0.0,0.0,0.0,1.0,0.0005473116762,0.00119344773702,0.00781399011612,1.21846967915e-07,0.0,0.0,0.0,1.21846967915e-07,0.0,0.0,0.0,1.21846967915e-07,0.123549520969,0.153272002935,9.72085952759,9e-08,0.0,0.0,0.0,9e-08,0.0,0.0,0.0,9e-08
1560461636650793673,33215,1560461636648644416,base_link,0.00991403261219,0.00033674870979,0.640147751051,0.768187927535,1.0,0.0,0.0,0.0,1.0,0.0,0.0,0.0,1.0,0.00102468987461,0.000230880337767,0.00728952139616,1.21846967915e-07,0.0,0.0,0.0,1.21846967915e-07,0.0,0.0,0.0,1.21846967915e-07,0.124884158373,0.11215634644,9.86492729187,9e-08,0.0,0.0,0.0,9e-08,0.0,0.0,0.0,9e-08
1560461636668404555,33216,1560461636664642368,base_link,0.00990106554156,0.000344184665102,0.640209591014,0.768136371403,1.0,0.0,0.0,0.0,1.0,0.0,0.0,0.0,1.0,0.000218581786612,0.00171732285526,0.00674528675154,1.21846967915e-07,0.0,0.0,0.0,1.21846967915e-07,0.0,0.0,0.0,1.21846967915e-07,0.111044496298,0.180392116308,9.73776721954,9e-08,0.0,0.0,0.0,9e-08,0.0,0.0,0.0,9e-08
1560461636687621200,33217,1560461636684642368,base_link,0.00990458480341,0.000345912685891,0.640279844542,0.768077918992,1.0,0.0,0.0,0.0,1.0,0.0,0.0,0.0,1.0,0.000631667790003,-0.00179855176248,0.00590425450355,1.21846967915e-07,0.0,0.0,0.0,1.21846967915e-07,0.0,0.0,0.0,1.21846967915e-07,0.110085695982,0.110672667623,9.80531024933,9e-08,0.0,0.0,0.0,9e-08,0.0,0.0,0.0,9e-08
1560461636707526318,33218,1560461636704642368,base_link,0.00990971387731,0.000333510646445,0.640356709857,0.768013697732,1.0,0.0,0.0,0.0,1.0,0.0,0.0,0.0,1.0,-9.23824918573e-05,-0.000939939869568,0.00740384077653,1.21846967915e-07,0.0,0.0,0.0,1.21846967915e-07,0.0,0.0,0.0,1.21846967915e-07,0.11249858886,0.180086255074,9.76429462433,9e-08,0.0,0.0,0.0,9e-08,0.0,0.0,0.0,9e-08
1560461636728567138,33219,1560461636724642368,base_link,0.00990860587617,0.00032413132629,0.640426578796,0.767955545618,1.0,0.0,0.0,0.0,1.0,0.0,0.0,0.0,1.0,-0.00150017801207,0.000865163863637,0.00485780416057,1.21846967915e-07,0.0,0.0,0.0,1.21846967915e-07,0.0,0.0,0.0,1.21846967915e-07,0.152375772595,0.130670338869,9.85599517822,9e-08,0.0,0.0,0.0,9e-08,0.0,0.0,0.0,9e-08
1560461636747308229,33220,1560461636744642368,base_link,0.00990546198469,0.000339227800591,0.640504171144,0.767890850205,1.0,0.0,0.0,0.0,1.0,0.0,0.0,0.0,1.0,0.000672130612656,0.000557330786251,0.00887805689126,1.21846967915e-07,0.0,0.0,0.0,1.21846967915e-07,0.0,0.0,0.0,1.21846967915e-07,0.0863265842199,0.155192643404,9.73173427582,9e-08,0.0,0.0,0.0,9e-08,0.0,0.0,0.0,9e-08
1560461636768463594,33221,1560461636764640576,base_link,0.0099304593464,0.000326609100001,0.640581141826,0.767826270696,1.0,0.0,0.0,0.0,1.0,0.0,0.0,0.0,1.0,0.000957903685048,-0.00243440503255,0.00612043961883,1.21846967915e-07,0.0,0.0,0.0,1.21846967915e-07,0.0,0.0,0.0,1.21846967915e-07,0.11975633353,0.147201895714,9.84883117676,9e-08,0.0,0.0,0.0,9e-08,0.0,0.0,0.0,9e-08
1560461636787219564,33222,1560461636784640576,base_link,0.0099348561188,0.000326261717773,0.640650278462,0.767768598003,1.0,0.0,0.0,0.0,1.0,0.0,0.0,0.0,1.0,0.0005450596218,0.000122641795315,0.00739143323153,1.21846967915e-07,0.0,0.0,0.0,1.21846967915e-07,0.0,0.0,0.0,1.21846967915e-07,0.106443598866,0.117116704583,9.80980300903,9e-08,0.0,0.0,0.0,9e-08,0.0,0.0,0.0,9e-08
1560461636807470616,33223,1560461636804640576,base_link,0.00993064077541,0.000322031227854,0.640719399294,0.76771085682,1.0,0.0,0.0,0.0,1.0,0.0,0.0,0.0,1.0,0.0016097080661,-0.0011638548458,0.00675206119195,1.21846967915e-07,0.0,0.0,0.0,1.21846967915e-07,0.0,0.0,0.0,1.21846967915e-07,0.12394168973,0.137355342507,9.77422714233,9e-08,0.0,0.0,0.0,9e-08,0.0,0.0,0.0,9e-08
1560461636827358084,33224,1560461636824640576,base_link,0.00994193547227,0.000323646637532,0.640789800336,0.767652004015,1.0,0.0,0.0,0.0,1.0,0.0,0.0,0.0,1.0,0.000214806364966,-0.000623098632786,0.00654799770564,1.21846967915e-07,0.0,0.0,0.0,1.21846967915e-07,0.0,0.0,0.0,1.21846967915e-07,0.147116690874,0.139237552881,9.80034542084,9e-08,0.0,0.0,0.0,9e-08,0.0,0.0,0.0,9e-08
1560461636847488773,33225,1560461636844640576,base_link,0.00993387719239,0.000326621612347,0.640865859592,0.767588673106,1.0,0.0,0.0,0.0,1.0,0.0,0.0,0.0,1.0,-0.000721541349776,0.000140701653436,0.00783509667963,1.21846967915e-07,0.0,0.0,0.0,1.21846967915e-07,0.0,0.0,0.0,1.21846967915e-07,0.116381905973,0.14374820888,9.7603225708,9e-08,0.0,0.0,0.0,9e-08,0.0,0.0,0.0,9e-08
1560461636867703421,33226,1560461636864635456,base_link,0.00993029964935,0.000322969653778,0.640945812164,0.767521870351,1.0,0.0,0.0,0.0,1.0,0.0,0.0,0.0,1.0,-0.00124223448802,0.000137394061312,0.00922540016472,1.21846967915e-07,0.0,0.0,0.0,1.21846967915e-07,0.0,0.0,0.0,1.21846967915e-07,0.158016070724,0.128847047687,9.80256843567,9e-08,0.0,0.0,0.0,9e-08,0.0,0.0,0.0,9e-08
1560461636887896594,33227,1560461636884635456,base_link,0.00993844024729,0.000317544893393,0.641019906324,0.767459998778,1.0,0.0,0.0,0.0,1.0,0.0,0.0,0.0,1.0,-0.000846557901241,-0.00264158262871,0.00679131131619,1.21846967915e-07,0.0,0.0,0.0,1.21846967915e-07,0.0,0.0,0.0,1.21846967915e-07,0.132575809956,0.14155843854,9.78301811218,9e-08,0.0,0.0,0.0,9e-08,0.0,0.0,0.0,9e-08
1560461636907508616,33228,1560461636904635456,base_link,0.00992409978208,0.00031834502497,0.641088421294,0.767402779163,1.0,0.0,0.0,0.0,1.0,0.0,0.0,0.0,1.0,-0.000865436217282,0.00213859928772,0.00538499560207,1.21846967915e-07,0.0,0.0,0.0,1.21846967915e-07,0.0,0.0,0.0,1.21846967915e-07,0.116630926728,0.127996608615,9.83572292328,9e-08,0.0,0.0,0.0,9e-08,0.0,0.0,0.0,9e-08
1560461636928091293,33229,1560461636924635456,base_link,0.00991647943431,0.000323419439677,0.641157958326,0.767344874661,1.0,0.0,0.0,0.0,1.0,0.0,0.0,0.0,1.0,0.000966373889241,-0.00179068313446,0.00708276545629,1.21846967915e-07,0.0,0.0,0.0,1.21846967915e-07,0.0,0.0,0.0,1.21846967915e-07,0.126679003239,0.12813988328,9.76764678955,9e-08,0.0,0.0,0.0,9e-08,0.0,0.0,0.0,9e-08
1560461636948147651,33230,1560461636944635456,base_link,0.00992318539303,0.000327647953962,0.641234007046,0.767281217115,1.0,0.0,0.0,0.0,1.0,0.0,0.0,0.0,1.0,0.000869587180205,0.000767085817643,0.00781846232712,1.21846967915e-07,0.0,0.0,0.0,1.21846967915e-07,0.0,0.0,0.0,1.21846967915e-07,0.101350665092,0.169824585319,9.833360672,9e-08,0.0,0.0,0.0,9e-08,0.0,0.0,0.0,9e-08
1560461636967572193,33231,1560461636964633664,base_link,0.00992533784576,0.000324778346269,0.641312452868,0.767215583935,1.0,0.0,0.0,0.0,1.0,0.0,0.0,0.0,1.0,2.40151584876e-05,-0.00167698902078,0.00827049463987,1.21846967915e-07,0.0,0.0,0.0,1.21846967915e-07,0.0,0.0,0.0,1.21846967915e-07,0.0958636254072,0.10845862329,9.81339645386,9e-08,0.0,0.0,0.0,9e-08,0.0,0.0,0.0,9e-08
1560461636986560076,33232,1560461636984633664,base_link,0.00992554660437,0.000326123752699,0.641384286903,0.767155551018,1.0,0.0,0.0,0.0,1.0,0.0,0.0,0.0,1.0,-0.000321049999911,0.000760023947805,0.00634768139571,1.21846967915e-07,0.0,0.0,0.0,1.21846967915e-07,0.0,0.0,0.0,1.21846967915e-07,0.0851249247789,0.172581851482,9.8066110611,9e-08,0.0,0.0,0.0,9e-08,0.0,0.0,0.0,9e-08
1560461637007840815,33233,1560461637004633664,base_link,0.00992891802298,0.000332656184946,0.641453960912,0.767097340951,1.0,0.0,0.0,0.0,1.0,0.0,0.0,0.0,1.0,0.000625507498626,0.000436667934991,0.00548700150102,1.21846967915e-07,0.0,0.0,0.0,1.21846967915e-07,0.0,0.0,0.0,1.21846967915e-07,0.133327648044,0.153670579195,9.83771419525,9e-08,0.0,0.0,0.0,9e-08,0.0,0.0,0.0,9e-08
1560461637026912018,33234,1560461637024633664,base_link,0.00992147910421,0.000336794478634,0.641524667518,0.767038182581,1.0,0.0,0.0,0.0,1.0,0.0,0.0,0.0,1.0,-0.000735562352929,0.00182850915007,0.00720374425873,1.21846967915e-07,0.0,0.0,0.0,1.21846967915e-07,0.0,0.0,0.0,1.21846967915e-07,0.115856006742,0.152729779482,9.7421875,9e-08,0.0,0.0,0.0,9e-08,0.0,0.0,0.0,9e-08
1560461637047821770,33235,1560461637044633664,base_link,0.00992149886055,0.000331869224259,0.641603761348,0.766972069981,1.0,0.0,0.0,0.0,1.0,0.0,0.0,0.0,1.0,-0.000725613441318,-0.00242465967312,0.0079693775624,1.21846967915e-07,0.0,0.0,0.0,1.21846967915e-07,0.0,0.0,0.0,1.21846967915e-07,0.143100962043,0.142653286457,9.82066345215,9e-08,0.0,0.0,0.0,9e-08,0.0,0.0,0.0,9e-08
1560461637067482630,33236,1560461637064629568,base_link,0.00992879882642,0.000336389473761,0.641676138023,0.766911325836,1.0,0.0,0.0,0.0,1.0,0.0,0.0,0.0,1.0,0.00169237446971,0.00128958595451,0.00579233607277,1.21846967915e-07,0.0,0.0,0.0,1.21846967915e-07,0.0,0.0,0.0,1.21846967915e-07,0.101266294718,0.152011036873,9.79145812988,9e-08,0.0,0.0,0.0,9e-08,0.0,0.0,0.0,9e-08
1560461637088260784,33237,1560461637084629568,base_link,0.00992611789173,0.000337898199229,0.641748014205,0.766851335065,1.0,0.0,0.0,0.0,1.0,0.0,0.0,0.0,1.0,-0.000425084086601,1.56780006364e-05,0.00646701222286,1.21846967915e-07,0.0,0.0,0.0,1.21846967915e-07,0.0,0.0,0.0,1.21846967915e-07,0.0995864421129,0.124136939645,9.80209064484,9e-08,0.0,0.0,0.0,9e-08,0.0,0.0,0.0,9e-08
1560461637107329401,33238,1560461637104629568,base_link,0.0099254073222,0.000341031553998,0.641821254891,0.76678997979,1.0,0.0,0.0,0.0,1.0,0.0,0.0,0.0,1.0,-0.000842298497446,0.000547356903553,0.00679031480104,1.21846967915e-07,0.0,0.0,0.0,1.21846967915e-07,0.0,0.0,0.0,1.21846967915e-07,0.108122237027,0.153859257698,9.75778102875,9e-08,0.0,0.0,0.0,9e-08,0.0,0.0,0.0,9e-08
1560461637129640328,33239,1560461637125629568,base_link,0.00992589102315,0.000344453680534,0.641892846582,0.766730104924,1.0,0.0,0.0,0.0,1.0,0.0,0.0,0.0,1.0,3.24843604176e-05,0.000140265095979,0.00599956791848,1.21846967915e-07,0.0,0.0,0.0,1.21846967915e-07,0.0,0.0,0.0,1.21846967915e-07,0.130739122629,0.17700240016,9.81329059601,9e-08,0.0,0.0,0.0,9e-08,0.0,0.0,0.0,9e-08
1560461637148249439,33240,1560461637145629568,base_link,0.00991977018122,0.00034104209071,0.641968294709,0.766666963676,1.0,0.0,0.0,0.0,1.0,0.0,0.0,0.0,1.0,0.000320469058352,0.000337486620992,0.00666912272573,1.21846967915e-07,0.0,0.0,0.0,1.21846967915e-07,0.0,0.0,0.0,1.21846967915e-07,0.087230682373,0.144990772009,9.81904506683,9e-08,0.0,0.0,0.0,9e-08,0.0,0.0,0.0,9e-08
1560461637166968009,33241,1560461637161627776,base_link,0.00992467765489,0.000355665730054,0.642035276588,0.766610855684,1.0,0.0,0.0,0.0,1.0,0.0,0.0,0.0,1.0,0.00224854587577,0.00183206703514,0.0078131807968,1.21846967915e-07,0.0,0.0,0.0,1.21846967915e-07,0.0,0.0,0.0,1.21846967915e-07,0.105840109289,0.151771813631,9.74430942535,9e-08,0.0,0.0,0.0,9e-08,0.0,0.0,0.0,9e-08
1560461637187829269,33242,1560461637185627776,base_link,0.0099334237845,0.000355326579633,0.642123063205,0.766537146115,1.0,0.0,0.0,0.0,1.0,0.0,0.0,0.0,1.0,-0.000425175065175,-0.00113071221858,0.00785660464317,1.21846967915e-07,0.0,0.0,0.0,1.21846967915e-07,0.0,0.0,0.0,1.21846967915e-07,0.111947692931,0.155756086111,9.81387329102,9e-08,0.0,0.0,0.0,9e-08,0.0,0.0,0.0,9e-08
1560461637206353119,33243,1560461637201627776,base_link,0.00992528878419,0.000366112221585,0.642182353284,0.766487634104,1.0,0.0,0.0,0.0,1.0,0.0,0.0,0.0,1.0,0.000200210866751,0.00235890457407,0.00613476336002,1.21846967915e-07,0.0,0.0,0.0,1.21846967915e-07,0.0,0.0,0.0,1.21846967915e-07,0.107496619225,0.14115524292,9.79955673218,9e-08,0.0,0.0,0.0,9e-08,0.0,0.0,0.0,9e-08
1560461637228187466,33244,1560461637225627776,base_link,0.00991652684951,0.000372941986677,0.642265645994,0.76641791268,1.0,0.0,0.0,0.0,1.0,0.0,0.0,0.0,1.0,0.000650968810078,0.00129936111625,0.00752445496619,1.21846967915e-07,0.0,0.0,0.0,1.21846967915e-07,0.0,0.0,0.0,1.21846967915e-07,0.106557041407,0.156780123711,9.79510211945,9e-08,0.0,0.0,0.0,9e-08,0.0,0.0,0.0,9e-08
1560461637248109739,33245,1560461637245627776,base_link,0.0099236901674,0.000376332503076,0.642342042425,0.766353823129,1.0,0.0,0.0,0.0,1.0,0.0,0.0,0.0,1.0,0.00288993958384,2.077431418e-05,0.00770966988057,1.21846967915e-07,0.0,0.0,0.0,1.21846967915e-07,0.0,0.0,0.0,1.21846967915e-07,0.120893716812,0.146660223603,9.79934692383,9e-08,0.0,0.0,0.0,9e-08,0.0,0.0,0.0,9e-08
1560461637268586887,33246,1560461637265625728,base_link,0.00992459994664,0.000368928816445,0.64241464564,0.766293021031,1.0,0.0,0.0,0.0,1.0,0.0,0.0,0.0,1.0,-0.000731059699319,-0.000407727842685,0.0073292539455,1.21846967915e-07,0.0,0.0,0.0,1.21846967915e-07,0.0,0.0,0.0,1.21846967915e-07,0.102440133691,0.155878424644,9.80214977264,9e-08,0.0,0.0,0.0,9e-08,0.0,0.0,0.0,9e-08
1560461637288571945,33247,1560461637285625728,base_link,0.00992938361394,0.000374200465232,0.642496921556,0.766223810638,1.0,0.0,0.0,0.0,1.0,0.0,0.0,0.0,1.0,0.00033548718784,-0.00104316452052,0.00797282066196,1.21846967915e-07,0.0,0.0,0.0,1.21846967915e-07,0.0,0.0,0.0,1.21846967915e-07,0.0892487838864,0.127740308642,9.78636169434,9e-08,0.0,0.0,0.0,9e-08,0.0,0.0,0.0,9e-08
1560461637308175017,33248,1560461637305625728,base_link,0.00993406059704,0.000375822460355,0.642569182328,0.766163182396,1.0,0.0,0.0,0.0,1.0,0.0,0.0,0.0,1.0,0.00116740469821,0.000870182644576,0.00645080115646,1.21846967915e-07,0.0,0.0,0.0,1.21846967915e-07,0.0,0.0,0.0,1.21846967915e-07,0.13840021193,0.13932184875,9.8428850174,9e-08,0.0,0.0,0.0,9e-08,0.0,0.0,0.0,9e-08
1560461637329160719,33249,1560461637325625728,base_link,0.00992183043771,0.000380802703196,0.642647612345,0.766097649315,1.0,0.0,0.0,0.0,1.0,0.0,0.0,0.0,1.0,8.79201252246e-07,0.00076457625255,0.00678721163422,1.21846967915e-07,0.0,0.0,0.0,1.21846967915e-07,0.0,0.0,0.0,1.21846967915e-07,0.125560164452,0.14658741653,9.76712322235,9e-08,0.0,0.0,0.0,9e-08,0.0,0.0,0.0,9e-08
1560461637348241750,33250,1560461637345625728,base_link,0.00992217452721,0.000372226807341,0.642714178024,0.766041704642,1.0,0.0,0.0,0.0,1.0,0.0,0.0,0.0,1.0,-1.33970679599e-05,-0.00126090762205,0.00604548677802,1.21846967915e-07,0.0,0.0,0.0,1.21846967915e-07,0.0,0.0,0.0,1.21846967915e-07,0.111156664789,0.126395493746,9.81693935394,9e-08,0.0,0.0,0.0,9e-08,0.0,0.0,0.0,9e-08
1560461637369035625,33251,1560461637365623936,base_link,0.00992419263686,0.000370042085936,0.642788983412,0.765978953253,1.0,0.0,0.0,0.0,1.0,0.0,0.0,0.0,1.0,0.000530115095899,-0.00136369874235,0.00679152784869,1.21846967915e-07,0.0,0.0,0.0,1.21846967915e-07,0.0,0.0,0.0,1.21846967915e-07,0.132949113846,0.158823341131,9.74910163879,9e-08,0.0,0.0,0.0,9e-08,0.0,0.0,0.0,9e-08
1560461637387948307,33252,1560461637385623936,base_link,0.00992401943965,0.000362914658726,0.642869115107,0.765911718493,1.0,0.0,0.0,0.0,1.0,0.0,0.0,0.0,1.0,0.000316001009196,0.000226054689847,0.00636556558311,1.21846967915e-07,0.0,0.0,0.0,1.21846967915e-07,0.0,0.0,0.0,1.21846967915e-07,0.106447942555,0.132431373,9.79540729523,9e-08,0.0,0.0,0.0,9e-08,0.0,0.0,0.0,9e-08
1560461637406390093,33253,1560461637401623936,base_link,0.00992494831668,0.000366393420089,0.642925907986,0.765864029334,1.0,0.0,0.0,0.0,1.0,0.0,0.0,0.0,1.0,0.00107296765782,-0.00136253912933,0.00732489442453,1.21846967915e-07,0.0,0.0,0.0,1.21846967915e-07,0.0,0.0,0.0,1.21846967915e-07,0.111004777253,0.151558771729,9.81771755219,9e-08,0.0,0.0,0.0,9e-08,0.0,0.0,0.0,9e-08
1560461637428395089,33254,1560461637425623936,base_link,0.00992483735193,0.000362854731176,0.643010955058,0.765792637841,1.0,0.0,0.0,0.0,1.0,0.0,0.0,0.0,1.0,0.000205404576263,0.000761632923968,0.00615232391283,1.21846967915e-07,0.0,0.0,0.0,1.21846967915e-07,0.0,0.0,0.0,1.21846967915e-07,0.123090431094,0.122839003801,9.80772209167,9e-08,0.0,0.0,0.0,9e-08,0.0,0.0,0.0,9e-08
1560461637448346609,33255,1560461637445623936,base_link,0.00991426540767,0.000362376298591,0.643087146023,0.765728838049,1.0,0.0,0.0,0.0,1.0,0.0,0.0,0.0,1.0,-9.33214396355e-05,-8.22702422738e-05,0.00732768187299,1.21846967915e-07,0.0,0.0,0.0,1.21846967915e-07,0.0,0.0,0.0,1.21846967915e-07,0.110792085528,0.142439156771,9.79563903809,9e-08,0.0,0.0,0.0,9e-08,0.0,0.0,0.0,9e-08
1560461637468716495,33256,1560461637465621888,base_link,0.00992190485324,0.00036223306516,0.643154833862,0.76567185551,1.0,0.0,0.0,0.0,1.0,0.0,0.0,0.0,1.0,0.00170756143052,-0.000724469660781,0.00720776524395,1.21846967915e-07,0.0,0.0,0.0,1.21846967915e-07,0.0,0.0,0.0,1.21846967915e-07,0.142790749669,0.15502512455,9.84172916412,9e-08,0.0,0.0,0.0,9e-08,0.0,0.0,0.0,9e-08
1560461637488118773,33257,1560461637485621888,base_link,0.00992336813914,0.000361594935532,0.643229365295,0.765609293781,1.0,0.0,0.0,0.0,1.0,0.0,0.0,0.0,1.0,-0.000516202650033,0.00055478233844,0.00776465097442,1.21846967915e-07,0.0,0.0,0.0,1.21846967915e-07,0.0,0.0,0.0,1.21846967915e-07,0.154689222574,0.12896104157,9.77432727814,9e-08,0.0,0.0,0.0,9e-08,0.0,0.0,0.0,9e-08
1560461637507802986,33258,1560461637505621888,base_link,0.00991242675141,0.000359756608538,0.643301668214,0.765548707687,1.0,0.0,0.0,0.0,1.0,0.0,0.0,0.0,1.0,0.000425116304541,-0.00051902490668,0.00690744351596,1.21846967915e-07,0.0,0.0,0.0,1.21846967915e-07,0.0,0.0,0.0,1.21846967915e-07,0.0913675576448,0.158673942089,9.80908298492,9e-08,0.0,0.0,0.0,9e-08,0.0,0.0,0.0,9e-08
1560461637528749153,33259,1560461637525621888,base_link,0.00991800528193,0.00036930352827,0.643370862802,0.765490302691,1.0,0.0,0.0,0.0,1.0,0.0,0.0,0.0,1.0,0.00233724992722,0.000231426791288,0.00645685987547,1.21846967915e-07,0.0,0.0,0.0,1.21846967915e-07,0.0,0.0,0.0,1.21846967915e-07,0.114675626159,0.149118989706,9.80822277069,9e-08,0.0,0.0,0.0,9e-08,0.0,0.0,0.0,9e-08
1560461637549040072,33260,1560461637545621888,base_link,0.00992160686185,0.000368620617615,0.643438260881,0.765433694205,1.0,0.0,0.0,0.0,1.0,0.0,0.0,0.0,1.0,-0.000227004202316,0.000873294775374,0.00595322204754,1.21846967915e-07,0.0,0.0,0.0,1.21846967915e-07,0.0,0.0,0.0,1.21846967915e-07,0.131198972464,0.096199400723,9.798787117,9e-08,0.0,0.0,0.0,9e-08,0.0,0.0,0.0,9e-08
1560461637568734077,33261,1560461637565619840,base_link,0.00992071881458,0.000364678240918,0.643506970781,0.765375942486,1.0,0.0,0.0,0.0,1.0,0.0,0.0,0.0,1.0,0.000532691483386,-0.00136317301076,0.00681007048115,1.21846967915e-07,0.0,0.0,0.0,1.21846967915e-07,0.0,0.0,0.0,1.21846967915e-07,0.145687222481,0.100937061012,9.77358913422,9e-08,0.0,0.0,0.0,9e-08,0.0,0.0,0.0,9e-08
1560461637587708143,33262,1560461637585619840,base_link,0.00993174877654,0.000362143503107,0.643578789011,0.765315419612,1.0,0.0,0.0,0.0,1.0,0.0,0.0,0.0,1.0,0.00139796314761,-0.000829865108244,0.00764594506472,1.21846967915e-07,0.0,0.0,0.0,1.21846967915e-07,0.0,0.0,0.0,1.21846967915e-07,0.118542969227,0.154360085726,9.84684944153,9e-08,0.0,0.0,0.0,9e-08,0.0,0.0,0.0,9e-08
1560461637609612064,33263,1560461637602619840,base_link,0.00993593679034,0.000361334481179,0.643639006321,0.76526472749,1.0,0.0,0.0,0.0,1.0,0.0,0.0,0.0,1.0,-0.000435243971879,0.000124666956253,0.00661063194275,1.21846967915e-07,0.0,0.0,0.0,1.21846967915e-07,0.0,0.0,0.0,1.21846967915e-07,0.103516332805,0.138749867678,9.82584762573,9e-08,0.0,0.0,0.0,9e-08,0.0,0.0,0.0,9e-08
1560461637627175160,33264,1560461637622619840,base_link,0.00992900890212,0.000359524142327,0.643705967126,0.76520838769,1.0,0.0,0.0,0.0,1.0,0.0,0.0,0.0,1.0,-0.000527100171894,0.000445201178081,0.00745573546737,1.21846967915e-07,0.0,0.0,0.0,1.21846967915e-07,0.0,0.0,0.0,1.21846967915e-07,0.0652225315571,0.167603164911,9.78514003754,9e-08,0.0,0.0,0.0,9e-08,0.0,0.0,0.0,9e-08
1560461637646943021,33265,1560461637642619840,base_link,0.00992933652801,0.000354736194481,0.643778907516,0.765146995537,1.0,0.0,0.0,0.0,1.0,0.0,0.0,0.0,1.0,0.00129467307124,0.000234474427998,0.00700639886782,1.21846967915e-07,0.0,0.0,0.0,1.21846967915e-07,0.0,0.0,0.0,1.21846967915e-07,0.12042760849,0.167069882154,9.80847930908,9e-08,0.0,0.0,0.0,9e-08,0.0,0.0,0.0,9e-08
1560461637665951020,33266,1560461637662617792,base_link,0.00992379191253,0.000354629180999,0.643849466609,0.765087731799,1.0,0.0,0.0,0.0,1.0,0.0,0.0,0.0,1.0,-0.000758034584578,0.00118569203187,0.00586497643963,1.21846967915e-07,0.0,0.0,0.0,1.21846967915e-07,0.0,0.0,0.0,1.21846967915e-07,0.109575040638,0.148232504725,9.81578540802,9e-08,0.0,0.0,0.0,9e-08,0.0,0.0,0.0,9e-08
1560461637686033283,33267,1560461637682617792,base_link,0.00991946823856,0.000358970635668,0.643918250265,0.765029990617,1.0,0.0,0.0,0.0,1.0,0.0,0.0,0.0,1.0,-0.000844920985401,0.00066185335163,0.00735994847491,1.21846967915e-07,0.0,0.0,0.0,1.21846967915e-07,0.0,0.0,0.0,1.21846967915e-07,0.0956118777394,0.147690236568,9.80511379242,9e-08,0.0,0.0,0.0,9e-08,0.0,0.0,0.0,9e-08
1560461637707738341,33268,1560461637702617792,base_link,0.00992689530352,0.000362893585302,0.643986190985,0.764972586609,1.0,0.0,0.0,0.0,1.0,0.0,0.0,0.0,1.0,0.00212415866554,-0.000617455632892,0.00637734681368,1.21846967915e-07,0.0,0.0,0.0,1.21846967915e-07,0.0,0.0,0.0,1.21846967915e-07,0.110024981201,0.154795348644,9.80100440979,9e-08,0.0,0.0,0.0,9e-08,0.0,0.0,0.0,9e-08
1560461637726767758,33269,1560461637722617792,base_link,0.00992616201421,0.000363009159863,0.644057155741,0.764913001502,1.0,0.0,0.0,0.0,1.0,0.0,0.0,0.0,1.0,-4.83429903397e-06,0.000230753095821,0.00672347471118,1.21846967915e-07,0.0,0.0,0.0,1.21846967915e-07,0.0,0.0,0.0,1.21846967915e-07,0.125456675887,0.16295145452,9.82942199707,9e-08,0.0,0.0,0.0,9e-08,0.0,0.0,0.0,9e-08
1560461637747591091,33270,1560461637742617792,base_link,0.00992741028533,0.000361760888748,0.644128763237,0.764852605068,1.0,0.0,0.0,0.0,1.0,0.0,0.0,0.0,1.0,0.00117169180885,-8.39497661218e-05,0.00712835462764,1.21846967915e-07,0.0,0.0,0.0,1.21846967915e-07,0.0,0.0,0.0,1.21846967915e-07,0.132088884711,0.127116799355,9.79053688049,9e-08,0.0,0.0,0.0,9e-08,0.0,0.0,0.0,9e-08
1560461637766303676,33271,1560461637762615488,base_link,0.00993116003775,0.00035962391182,0.644192094145,0.764799220816,1.0,0.0,0.0,0.0,1.0,0.0,0.0,0.0,1.0,9.22069448279e-05,0.000332064228132,0.00585299683735,1.21846967915e-07,0.0,0.0,0.0,1.21846967915e-07,0.0,0.0,0.0,1.21846967915e-07,0.122531801462,0.168976247311,9.79018497467,9e-08,0.0,0.0,0.0,9e-08,0.0,0.0,0.0,9e-08
1560461637786530362,33272,1560461637782615488,base_link,0.00992876721628,0.000359591313867,0.644261957815,0.764740483914,1.0,0.0,0.0,0.0,1.0,0.0,0.0,0.0,1.0,0.00062577240169,-0.000512571947183,0.00595566723496,1.21846967915e-07,0.0,0.0,0.0,1.21846967915e-07,0.0,0.0,0.0,1.21846967915e-07,0.115267001092,0.141448110342,9.83181476593,9e-08,0.0,0.0,0.0,9e-08,0.0,0.0,0.0,9e-08
1560461637805729470,33273,1560461637802615488,base_link,0.00993191802248,0.000367884035583,0.644334503078,0.764679318301,1.0,0.0,0.0,0.0,1.0,0.0,0.0,0.0,1.0,0.000852297758684,0.00194278277922,0.00700536882505,1.21846967915e-07,0.0,0.0,0.0,1.21846967915e-07,0.0,0.0,0.0,1.21846967915e-07,0.100958384573,0.145974501967,9.79521369934,9e-08,0.0,0.0,0.0,9e-08,0.0,0.0,0.0,9e-08
1560461637827345488,33274,1560461637822615488,base_link,0.00994597926482,0.000373738496259,0.644402333162,0.764621940635,1.0,0.0,0.0,0.0,1.0,0.0,0.0,0.0,1.0,0.00179598527029,-0.000723936886061,0.00562314596027,1.21846967915e-07,0.0,0.0,0.0,1.21846967915e-07,0.0,0.0,0.0,1.21846967915e-07,0.0960288643837,0.130507037044,9.74228382111,9e-08,0.0,0.0,0.0,9e-08,0.0,0.0,0.0,9e-08
1560461637846387098,33275,1560461637842615488,base_link,0.00994148008874,0.000376758581373,0.644469293968,0.764565516541,1.0,0.0,0.0,0.0,1.0,0.0,0.0,0.0,1.0,-1.39505973493e-05,0.00108544982504,0.00596134271473,1.21846967915e-07,0.0,0.0,0.0,1.21846967915e-07,0.0,0.0,0.0,1.21846967915e-07,0.0938166081905,0.148420929909,9.79331302643,9e-08,0.0,0.0,0.0,9e-08,0.0,0.0,0.0,9e-08
1560461637866040049,33276,1560461637862613440,base_link,0.00994909319252,0.000380280148129,0.644538920562,0.764506679541,1.0,0.0,0.0,0.0,1.0,0.0,0.0,0.0,1.0,0.00044060437358,-0.00060754705919,0.00809243135154,1.21846967915e-07,0.0,0.0,0.0,1.21846967915e-07,0.0,0.0,0.0,1.21846967915e-07,0.116927795112,0.124269336462,9.81387138367,9e-08,0.0,0.0,0.0,9e-08,0.0,0.0,0.0,9e-08
1560461637885900750,33277,1560461637882613440,base_link,0.00995198552,0.000387843531804,0.644612235005,0.76444482904,1.0,0.0,0.0,0.0,1.0,0.0,0.0,0.0,1.0,0.00128610734828,0.000550233991817,0.00712099345401,1.21846967915e-07,0.0,0.0,0.0,1.21846967915e-07,0.0,0.0,0.0,1.21846967915e-07,0.116332486272,0.158908814192,9.795794487,9e-08,0.0,0.0,0.0,9e-08,0.0,0.0,0.0,9e-08
1560461637906419836,33278,1560461637902613440,base_link,0.0099454988566,0.000386180706921,0.64467871639,0.764388800074,1.0,0.0,0.0,0.0,1.0,0.0,0.0,0.0,1.0,-0.00149095559027,-0.000401526631322,0.00663306284696,1.21846967915e-07,0.0,0.0,0.0,1.21846967915e-07,0.0,0.0,0.0,1.21846967915e-07,0.1504817307,0.171370714903,9.80009078979,9e-08,0.0,0.0,0.0,9e-08,0.0,0.0,0.0,9e-08
1560461637926509315,33279,1560461637922613440,base_link,0.00994410175442,0.000385153706761,0.644749143774,0.764329583752,1.0,0.0,0.0,0.0,1.0,0.0,0.0,0.0,1.0,-0.000311045587296,-0.000291866715997,0.00767857721075,1.21846967915e-07,0.0,0.0,0.0,1.21846967915e-07,0.0,0.0,0.0,1.21846967915e-07,0.086720623076,0.163643240929,9.80034065247,9e-08,0.0,0.0,0.0,9e-08,0.0,0.0,0.0,9e-08
1560461637947019635,33280,1560461637943613440,base_link,0.00994764110188,0.000380826081526,0.644810356803,0.764277811617,1.0,0.0,0.0,0.0,1.0,0.0,0.0,0.0,1.0,0.00156921078451,0.0011895209318,0.00488024717197,1.21846967915e-07,0.0,0.0,0.0,1.21846967915e-07,0.0,0.0,0.0,1.21846967915e-07,0.118145950139,0.145378217101,9.76747703552,9e-08,0.0,0.0,0.0,9e-08,0.0,0.0,0.0,9e-08
1560461637967362244,33281,1560461637963610880,base_link,0.00994634278139,0.000378034840629,0.644872886921,0.764225143861,1.0,0.0,0.0,0.0,1.0,0.0,0.0,0.0,1.0,-0.000970532943029,-0.000836798222736,0.00672881351784,1.21846967915e-07,0.0,0.0,0.0,1.21846967915e-07,0.0,0.0,0.0,1.21846967915e-07,0.130284100771,0.145852774382,9.80805683136,9e-08,0.0,0.0,0.0,9e-08,0.0,0.0,0.0,9e-08
1560461637988188052,33282,1560461637983610880,base_link,0.00994357887009,0.000380050645368,0.644938583321,0.764169731292,1.0,0.0,0.0,0.0,1.0,0.0,0.0,0.0,1.0,0.00074313377263,0.000662844860926,0.00692239403725,1.21846967915e-07,0.0,0.0,0.0,1.21846967915e-07,0.0,0.0,0.0,1.21846967915e-07,0.112374767661,0.108923643827,9.79039001465,9e-08,0.0,0.0,0.0,9e-08,0.0,0.0,0.0,9e-08
1560461638006808530,33283,1560461638003610880,base_link,0.00993987324014,0.000374625555712,0.645004163817,0.764114350333,1.0,0.0,0.0,0.0,1.0,0.0,0.0,0.0,1.0,-0.000312143092742,0.000240954104811,0.00768499169499,1.21846967915e-07,0.0,0.0,0.0,1.21846967915e-07,0.0,0.0,0.0,1.21846967915e-07,0.0914365425706,0.167923495173,9.79227828979,9e-08,0.0,0.0,0.0,9e-08,0.0,0.0,0.0,9e-08
1560461638028562722,33284,1560461638023610880,base_link,0.00992624696645,0.000375917949308,0.645071024524,0.764058194926,1.0,0.0,0.0,0.0,1.0,0.0,0.0,0.0,1.0,-0.000533125537913,0.000239791697823,0.00694931903854,1.21846967915e-07,0.0,0.0,0.0,1.21846967915e-07,0.0,0.0,0.0,1.21846967915e-07,0.13208912313,0.133243381977,9.80045890808,9e-08,0.0,0.0,0.0,9e-08,0.0,0.0,0.0,9e-08
1560461638047730904,33285,1560461638043610880,base_link,0.00992208496516,0.00037626434372,0.645134934952,0.764004231154,1.0,0.0,0.0,0.0,1.0,0.0,0.0,0.0,1.0,0.0010489851702,-0.00029878388159,0.00607653101906,1.21846967915e-07,0.0,0.0,0.0,1.21846967915e-07,0.0,0.0,0.0,1.21846967915e-07,0.122720345855,0.170403853059,9.81260967255,9e-08,0.0,0.0,0.0,9e-08,0.0,0.0,0.0,9e-08
1560461638066540689,33286,1560461638063607808,base_link,0.0099273773581,0.000377320319838,0.645199877977,0.763949234786,1.0,0.0,0.0,0.0,1.0,0.0,0.0,0.0,1.0,0.000734281784389,-0.000519320194144,0.00586901511997,1.21846967915e-07,0.0,0.0,0.0,1.21846967915e-07,0.0,0.0,0.0,1.21846967915e-07,0.123735114932,0.121211074293,9.782538414,9e-08,0.0,0.0,0.0,9e-08,0.0,0.0,0.0,9e-08
1560461638086494104,33287,1560461638083607808,base_link,0.00993204314594,0.000376478699957,0.6452713643,0.76388887523,1.0,0.0,0.0,0.0,1.0,0.0,0.0,0.0,1.0,0.00160116574261,-0.00231401063502,0.00746178766713,1.21846967915e-07,0.0,0.0,0.0,1.21846967915e-07,0.0,0.0,0.0,1.21846967915e-07,0.138592451811,0.128917053342,9.790807724,9e-08,0.0,0.0,0.0,9e-08,0.0,0.0,0.0,9e-08
1560461638107431510,33288,1560461638103607808,base_link,0.00993758348088,0.000368869876712,0.645335654049,0.763834532137,1.0,0.0,0.0,0.0,1.0,0.0,0.0,0.0,1.0,-0.000339118036209,-0.00125694391318,0.00599592272192,1.21846967915e-07,0.0,0.0,0.0,1.21846967915e-07,0.0,0.0,0.0,1.21846967915e-07,0.148360222578,0.146775215864,9.83613014221,9e-08,0.0,0.0,0.0,9e-08,0.0,0.0,0.0,9e-08
1560461638128024431,33289,1560461638123607808,base_link,0.00993785611831,0.000371580445907,0.645407345839,0.763773798529,1.0,0.0,0.0,0.0,1.0,0.0,0.0,0.0,1.0,0.000116735405754,0.000240491819568,0.00792719330639,1.21846967915e-07,0.0,0.0,0.0,1.21846967915e-07,0.0,0.0,0.0,1.21846967915e-07,0.100506238639,0.167726233602,9.79152488708,9e-08,0.0,0.0,0.0,9e-08,0.0,0.0,0.0,9e-08
1560461638147232681,33290,1560461638143607808,base_link,0.00993195918151,0.000376618640665,0.645474369864,0.763717311215,1.0,0.0,0.0,0.0,1.0,0.0,0.0,0.0,1.0,-1.84611417353e-06,0.000976580893621,0.00708023924381,1.21846967915e-07,0.0,0.0,0.0,1.21846967915e-07,0.0,0.0,0.0,1.21846967915e-07,0.104894757271,0.156798541546,9.79235172272,9e-08,0.0,0.0,0.0,9e-08,0.0,0.0,0.0,9e-08
1560461638167239566,33291,1560461638163605760,base_link,0.0099243855904,0.000380702604431,0.645544528562,0.763658026404,1.0,0.0,0.0,0.0,1.0,0.0,0.0,0.0,1.0,-0.00117641640827,-0.00040812412044,0.00688599888235,1.21846967915e-07,0.0,0.0,0.0,1.21846967915e-07,0.0,0.0,0.0,1.21846967915e-07,0.106717765331,0.146676391363,9.76087093353,9e-08,0.0,0.0,0.0,9e-08,0.0,0.0,0.0,9e-08
1560461638188474997,33292,1560461638183605760,base_link,0.00992254100723,0.000386134279533,0.645608591772,0.763603994144,1.0,0.0,0.0,0.0,1.0,0.0,0.0,0.0,1.0,0.00114567042328,0.00128551467787,0.00546798948199,1.21846967915e-07,0.0,0.0,0.0,1.21846967915e-07,0.0,0.0,0.0,1.21846967915e-07,0.109541766346,0.161051988602,9.79471111298,9e-08,0.0,0.0,0.0,9e-08,0.0,0.0,0.0,9e-08
1560461638206847824,33293,1560461638203605760,base_link,0.00992749885956,0.000383574846303,0.645677349087,0.763545689248,1.0,0.0,0.0,0.0,1.0,0.0,0.0,0.0,1.0,-0.000528250006028,-0.00104129710235,0.00752329127863,1.21846967915e-07,0.0,0.0,0.0,1.21846967915e-07,0.0,0.0,0.0,1.21846967915e-07,0.128951668739,0.153933420777,9.78643798828,9e-08,0.0,0.0,0.0,9e-08,0.0,0.0,0.0,9e-08
1560461638227531244,33294,1560461638223605760,base_link,0.00992923313652,0.000376617652848,0.64574691246,0.763486999761,1.0,0.0,0.0,0.0,1.0,0.0,0.0,0.0,1.0,-0.000220554502448,-0.00126189959701,0.00645777117461,1.21846967915e-07,0.0,0.0,0.0,1.21846967915e-07,0.0,0.0,0.0,1.21846967915e-07,0.128994941711,0.152176052332,9.82041454315,9e-08,0.0,0.0,0.0,9e-08,0.0,0.0,0.0,9e-08
1560461638247617942,33295,1560461638243605760,base_link,0.00992880475332,0.000377084231632,0.645813852192,0.76343034386,1.0,0.0,0.0,0.0,1.0,0.0,0.0,0.0,1.0,-0.000214755214984,0.000450278632343,0.007297124248,1.21846967915e-07,0.0,0.0,0.0,1.21846967915e-07,0.0,0.0,0.0,1.21846967915e-07,0.103945538402,0.138166815042,9.77174377441,9e-08,0.0,0.0,0.0,9e-08,0.0,0.0,0.0,9e-08
1560461638268276319,33296,1560461638263602432,base_link,0.00992724630774,0.000368753314334,0.645885865352,0.763369457469,1.0,0.0,0.0,0.0,1.0,0.0,0.0,0.0,1.0,-0.000557209132239,-0.000625390326604,0.00539417518303,1.21846967915e-07,0.0,0.0,0.0,1.21846967915e-07,0.0,0.0,0.0,1.21846967915e-07,0.0738288015127,0.168233782053,9.79887771606,9e-08,0.0,0.0,0.0,9e-08,0.0,0.0,0.0,9e-08
1560461638288341567,33297,1560461638283602432,base_link,0.00993308726826,0.000371692727745,0.645952257175,0.76331318089,1.0,0.0,0.0,0.0,1.0,0.0,0.0,0.0,1.0,0.00179053575266,0.000973670859821,0.00588863575831,1.21846967915e-07,0.0,0.0,0.0,1.21846967915e-07,0.0,0.0,0.0,1.21846967915e-07,0.114540889859,0.151192098856,9.81587314606,9e-08,0.0,0.0,0.0,9e-08,0.0,0.0,0.0,9e-08
1560461638306189381,33298,1560461638303602432,base_link,0.00993986863033,0.000382139548548,0.646016841952,0.763258289888,1.0,0.0,0.0,0.0,1.0,0.0,0.0,0.0,1.0,0.00212964997627,-0.000508842989802,0.00738229602575,1.21846967915e-07,0.0,0.0,0.0,1.21846967915e-07,0.0,0.0,0.0,1.21846967915e-07,0.0930816978216,0.124550029635,9.81486034393,9e-08,0.0,0.0,0.0,9e-08,0.0,0.0,0.0,9e-08
1560461638327462568,33299,1560461638323602432,base_link,0.00992864505628,0.000382421405597,0.646079008553,0.763205985649,1.0,0.0,0.0,0.0,1.0,0.0,0.0,0.0,1.0,-0.000971431203652,0.0020412071608,0.00613359315321,1.21846967915e-07,0.0,0.0,0.0,1.21846967915e-07,0.0,0.0,0.0,1.21846967915e-07,0.109670490026,0.174814462662,9.80915927887,9e-08,0.0,0.0,0.0,9e-08,0.0,0.0,0.0,9e-08
1560461638347164472,33300,1560461638343602432,base_link,0.00992874581359,0.000387060851656,0.646142255168,0.763152264222,1.0,0.0,0.0,0.0,1.0,0.0,0.0,0.0,1.0,0.000409072090406,0.00108126655687,0.00622290652245,1.21846967915e-07,0.0,0.0,0.0,1.21846967915e-07,0.0,0.0,0.0,1.21846967915e-07,0.0974722057581,0.159300357103,9.85956192017,9e-08,0.0,0.0,0.0,9e-08,0.0,0.0,0.0,9e-08
1560461638368918147,33301,1560461638365600128,base_link,0.00993276589854,0.000392946593196,0.646213646661,0.76309183091,1.0,0.0,0.0,0.0,1.0,0.0,0.0,0.0,1.0,1.20968688861e-05,-0.00178164080717,0.00826921779662,1.21846967915e-07,0.0,0.0,0.0,1.21846967915e-07,0.0,0.0,0.0,1.21846967915e-07,0.112323597074,0.134240061045,9.75977325439,9e-08,0.0,0.0,0.0,9e-08,0.0,0.0,0.0,9e-08
1560461638387995605,33302,1560461638385600128,base_link,0.00993630030691,0.000381994339484,0.64628184553,0.763034084459,1.0,0.0,0.0,0.0,1.0,0.0,0.0,0.0,1.0,-0.000317174621159,-0.0013589959126,0.00752683449537,1.21846967915e-07,0.0,0.0,0.0,1.21846967915e-07,0.0,0.0,0.0,1.21846967915e-07,0.11987157166,0.151022225618,9.79073143005,9e-08,0.0,0.0,0.0,9e-08,0.0,0.0,0.0,9e-08
1560461638408839195,33303,1560461638405600128,base_link,0.00992677149715,0.000389192560228,0.646350860994,0.76297569,1.0,0.0,0.0,0.0,1.0,0.0,0.0,0.0,1.0,-0.000321862840792,0.00204651569948,0.00697560887784,1.21846967915e-07,0.0,0.0,0.0,1.21846967915e-07,0.0,0.0,0.0,1.21846967915e-07,0.0864172950387,0.141932576895,9.78686714172,9e-08,0.0,0.0,0.0,9e-08,0.0,0.0,0.0,9e-08
1560461638428286998,33304,1560461638425600128,base_link,0.00991375042587,0.000390232072734,0.646415566944,0.762921015001,1.0,0.0,0.0,0.0,1.0,0.0,0.0,0.0,1.0,0.000299878767692,-0.000302347238176,0.00591823132709,1.21846967915e-07,0.0,0.0,0.0,1.21846967915e-07,0.0,0.0,0.0,1.21846967915e-07,0.0928139314055,0.161025956273,9.79811096191,9e-08,0.0,0.0,0.0,9e-08,0.0,0.0,0.0,9e-08
1560461638448198415,33305,1560461638445600128,base_link,0.00990634278797,0.000390484624553,0.646472986756,0.762872446026,1.0,0.0,0.0,0.0,1.0,0.0,0.0,0.0,1.0,-0.000332780735334,0.00108388112858,0.00623739091679,1.21846967915e-07,0.0,0.0,0.0,1.21846967915e-07,0.0,0.0,0.0,1.21846967915e-07,0.088450871408,0.143912166357,9.79872322083,9e-08,0.0,0.0,0.0,9e-08,0.0,0.0,0.0,9e-08
1560461638468266104,33306,1560461638465598336,base_link,0.00990120548226,0.000398276523171,0.646531370678,0.76282308153,1.0,0.0,0.0,0.0,1.0,0.0,0.0,0.0,1.0,-0.000755064364057,0.00140475400258,0.00667098816484,1.21846967915e-07,0.0,0.0,0.0,1.21846967915e-07,0.0,0.0,0.0,1.21846967915e-07,0.0982946231961,0.129540756345,9.78258228302,9e-08,0.0,0.0,0.0,9e-08,0.0,0.0,0.0,9e-08
1560461638488423600,33307,1560461638485598336,base_link,0.00990408398031,0.000391661443589,0.646592815515,0.762770993294,1.0,0.0,0.0,0.0,1.0,0.0,0.0,0.0,1.0,-0.000548977521248,-0.000194600899704,0.00614479463547,1.21846967915e-07,0.0,0.0,0.0,1.21846967915e-07,0.0,0.0,0.0,1.21846967915e-07,0.114174768329,0.152733027935,9.75960350037,9e-08,0.0,0.0,0.0,9e-08,0.0,0.0,0.0,9e-08
1560461638508221330,33308,1560461638505598336,base_link,0.00990759962016,0.000394522490203,0.646656235985,0.762717098011,1.0,0.0,0.0,0.0,1.0,0.0,0.0,0.0,1.0,0.00222757062875,-0.000507481279783,0.00685450434685,1.21846967915e-07,0.0,0.0,0.0,1.21846967915e-07,0.0,0.0,0.0,1.21846967915e-07,0.130474627018,0.17547005415,9.83854866028,9e-08,0.0,0.0,0.0,9e-08,0.0,0.0,0.0,9e-08
1560461638526309686,33309,1560461638521598336,base_link,0.00990491736838,0.00040142008538,0.646703224453,0.762677274508,1.0,0.0,0.0,0.0,1.0,0.0,0.0,0.0,1.0,0.00125638116151,0.000866414164193,0.00599648291245,1.21846967915e-07,0.0,0.0,0.0,1.21846967915e-07,0.0,0.0,0.0,1.21846967915e-07,0.12326388061,0.139645397663,9.81205272675,9e-08,0.0,0.0,0.0,9e-08,0.0,0.0,0.0,9e-08
1560461638548064212,33310,1560461638545598336,base_link,0.0099024843757,0.000411247874345,0.646782739751,0.762609981796,1.0,0.0,0.0,0.0,1.0,0.0,0.0,0.0,1.0,-0.000101364057628,-0.000286679482087,0.00868688337505,1.21846967915e-07,0.0,0.0,0.0,1.21846967915e-07,0.0,0.0,0.0,1.21846967915e-07,0.129222929478,0.145440727472,9.79453754425,9e-08,0.0,0.0,0.0,9e-08,0.0,0.0,0.0,9e-08
1560461638566668187,33311,1560461638561596288,base_link,0.00990518868872,0.000406899834231,0.646832473032,0.762567750653,1.0,0.0,0.0,0.0,1.0,0.0,0.0,0.0,1.0,0.000292778917355,-0.00232333340682,0.00570652261376,1.21846967915e-07,0.0,0.0,0.0,1.21846967915e-07,0.0,0.0,0.0,1.21846967915e-07,0.122297033668,0.108503013849,9.81121063232,9e-08,0.0,0.0,0.0,9e-08,0.0,0.0,0.0,9e-08
1560461638588421762,33312,1560461638585596288,base_link,0.0098988304415,0.000409271911549,0.646911482568,0.76250087941,1.0,0.0,0.0,0.0,1.0,0.0,0.0,0.0,1.0,0.00022175066988,-7.61285191402e-05,0.00761492410675,1.21846967915e-07,0.0,0.0,0.0,1.21846967915e-07,0.0,0.0,0.0,1.21846967915e-07,0.118437170982,0.131772905588,9.80340766907,9e-08,0.0,0.0,0.0,9e-08,0.0,0.0,0.0,9e-08
1560461638608488865,33313,1560461638605596288,base_link,0.00990112843256,0.000410181032242,0.646970830599,0.762450297923,1.0,0.0,0.0,0.0,1.0,0.0,0.0,0.0,1.0,0.0001875263697,0.00172282964922,0.00600743060932,1.21846967915e-07,0.0,0.0,0.0,1.21846967915e-07,0.0,0.0,0.0,1.21846967915e-07,0.114762060344,0.145330429077,9.84689331055,9e-08,0.0,0.0,0.0,9e-08,0.0,0.0,0.0,9e-08
1560461638625489574,33314,1560461638621596288,base_link,0.00989582978344,0.000406331839593,0.647023182254,0.762406122758,1.0,0.0,0.0,0.0,1.0,0.0,0.0,0.0,1.0,-0.000230177480262,-0.00156647362746,0.00666441814974,1.21846967915e-07,0.0,0.0,0.0,1.21846967915e-07,0.0,0.0,0.0,1.21846967915e-07,0.101562790573,0.154442161322,9.74416160583,9e-08,0.0,0.0,0.0,9e-08,0.0,0.0,0.0,9e-08
1560461638648881055,33315,1560461638645596288,base_link,0.00989682319784,0.000408868223765,0.647102655405,0.762338619311,1.0,0.0,0.0,0.0,1.0,0.0,0.0,0.0,1.0,-0.000436991918832,0.000456567853689,0.00687835458666,1.21846967915e-07,0.0,0.0,0.0,1.21846967915e-07,0.0,0.0,0.0,1.21846967915e-07,0.117031268775,0.125316873193,9.83423233032,9e-08,0.0,0.0,0.0,9e-08,0.0,0.0,0.0,9e-08
1560461638668122261,33316,1560461638665594240,base_link,0.00989308464066,0.000409404937539,0.647170527636,0.762281030911,1.0,0.0,0.0,0.0,1.0,0.0,0.0,0.0,1.0,0.000726557453163,-0.00242001679726,0.0073043811135,1.21846967915e-07,0.0,0.0,0.0,1.21846967915e-07,0.0,0.0,0.0,1.21846967915e-07,0.111309349537,0.121729284525,9.78429317474,9e-08,0.0,0.0,0.0,9e-08,0.0,0.0,0.0,9e-08
1560461638689116713,33317,1560461638685594240,base_link,0.00989179323488,0.000407805991474,0.647240449258,0.762221730295,1.0,0.0,0.0,0.0,1.0,0.0,0.0,0.0,1.0,-0.00116368778981,-0.000395358249079,0.00806653313339,1.21846967915e-07,0.0,0.0,0.0,1.21846967915e-07,0.0,0.0,0.0,1.21846967915e-07,0.111760675907,0.119008012116,9.80944252014,9e-08,0.0,0.0,0.0,9e-08,0.0,0.0,0.0,9e-08
1560461638707988246,33318,1560461638705594240,base_link,0.00988963650162,0.000409434572042,0.647306567126,0.762165474789,1.0,0.0,0.0,0.0,1.0,0.0,0.0,0.0,1.0,0.000727498030756,-0.00029668060597,0.006233362481,1.21846967915e-07,0.0,0.0,0.0,1.21846967915e-07,0.0,0.0,0.0,1.21846967915e-07,0.132297635078,0.141887873411,9.81418418884,9e-08,0.0,0.0,0.0,9e-08,0.0,0.0,0.0,9e-08
1560461638726719705,33319,1560461638721594240,base_link,0.00988866679483,0.000410427986433,0.647360346505,0.762119787606,1.0,0.0,0.0,0.0,1.0,0.0,0.0,0.0,1.0,-0.000977732241154,-0.00104174017906,0.0061521762982,1.21846967915e-07,0.0,0.0,0.0,1.21846967915e-07,0.0,0.0,0.0,1.21846967915e-07,0.112811654806,0.110351100564,9.78203392029,9e-08,0.0,0.0,0.0,9e-08,0.0,0.0,0.0,9e-08
1560461638749070053,33320,1560461638745594240,base_link,0.00989378467348,0.000407046031112,0.647435657655,0.762055771811,1.0,0.0,0.0,0.0,1.0,0.0,0.0,0.0,1.0,-0.000975957023911,-0.00294635491446,0.00627422705293,1.21846967915e-07,0.0,0.0,0.0,1.21846967915e-07,0.0,0.0,0.0,1.21846967915e-07,0.114446230233,0.15245243907,9.83372783661,9e-08,0.0,0.0,0.0,9e-08,0.0,0.0,0.0,9e-08
1560461638768666347,33321,1560461638766592192,base_link,0.0098931495073,0.000400375304518,0.647500026429,0.762001181106,1.0,0.0,0.0,0.0,1.0,0.0,0.0,0.0,1.0,-0.00108579546213,-0.00136214704253,0.00594480987638,1.21846967915e-07,0.0,0.0,0.0,1.21846967915e-07,0.0,0.0,0.0,1.21846967915e-07,0.110207684338,0.130709767342,9.76545906067,9e-08,0.0,0.0,0.0,9e-08,0.0,0.0,0.0,9e-08
1560461638789132910,33322,1560461638786592192,base_link,0.00989375833169,0.000403291668872,0.647566644792,0.761944593693,1.0,0.0,0.0,0.0,1.0,0.0,0.0,0.0,1.0,0.000747696554754,0.0012007788755,0.00782482791692,1.21846967915e-07,0.0,0.0,0.0,1.21846967915e-07,0.0,0.0,0.0,1.21846967915e-07,0.0946461185813,0.138360351324,9.77787399292,9e-08,0.0,0.0,0.0,9e-08,0.0,0.0,0.0,9e-08
1560461638809196567,33323,1560461638806592192,base_link,0.00988368095436,0.000409580439651,0.647627209813,0.761893216685,1.0,0.0,0.0,0.0,1.0,0.0,0.0,0.0,1.0,-0.000762803421821,0.000131351524033,0.00625547859818,1.21846967915e-07,0.0,0.0,0.0,1.21846967915e-07,0.0,0.0,0.0,1.21846967915e-07,0.128465786576,0.13900603354,9.8141708374,9e-08,0.0,0.0,0.0,9e-08,0.0,0.0,0.0,9e-08
1560461638826280503,33324,1560461638822592192,base_link,0.00987934509732,0.000406553769092,0.647678102133,0.761849995092,1.0,0.0,0.0,0.0,1.0,0.0,0.0,0.0,1.0,-6.07387119089e-06,-0.000291546457447,0.00720428535715,1.21846967915e-07,0.0,0.0,0.0,1.21846967915e-07,0.0,0.0,0.0,1.21846967915e-07,0.0976295396686,0.148631706834,9.82260131836,9e-08,0.0,0.0,0.0,9e-08,0.0,0.0,0.0,9e-08
1560461638849099207,33325,1560461638846592192,base_link,0.00987688016523,0.000409751661223,0.647755757701,0.761783972053,1.0,0.0,0.0,0.0,1.0,0.0,0.0,0.0,1.0,-0.000860738626216,0.00181181449443,0.00699447700754,1.21846967915e-07,0.0,0.0,0.0,1.21846967915e-07,0.0,0.0,0.0,1.21846967915e-07,0.109946064651,0.15305608511,9.80148601532,9e-08,0.0,0.0,0.0,9e-08,0.0,0.0,0.0,9e-08
1560461638865837530,33326,1560461638862588608,base_link,0.00987575537121,0.000409177410412,0.647806112648,0.761741203539,1.0,0.0,0.0,0.0,1.0,0.0,0.0,0.0,1.0,-0.000854882411659,-0.000716930197086,0.00743497023359,1.21846967915e-07,0.0,0.0,0.0,1.21846967915e-07,0.0,0.0,0.0,1.21846967915e-07,0.0827186405659,0.130275338888,9.77857875824,9e-08,0.0,0.0,0.0,9e-08,0.0,0.0,0.0,9e-08
1560461638887399408,33327,1560461638882588608,base_link,0.00987130097616,0.000409945273308,0.647872246322,0.761684932228,1.0,0.0,0.0,0.0,1.0,0.0,0.0,0.0,1.0,0.000933003495447,0.00162181234919,0.00591047527269,1.21846967915e-07,0.0,0.0,0.0,1.21846967915e-07,0.0,0.0,0.0,1.21846967915e-07,0.107945486903,0.165435910225,9.84867095947,9e-08,0.0,0.0,0.0,9e-08,0.0,0.0,0.0,9e-08
1560461638906568532,33328,1560461638902588608,base_link,0.00986859139478,0.000404368389142,0.647939180786,0.761628113008,1.0,0.0,0.0,0.0,1.0,0.0,0.0,0.0,1.0,0.000850303389598,-0.00018476403784,0.00751860300079,1.21846967915e-07,0.0,0.0,0.0,1.21846967915e-07,0.0,0.0,0.0,1.21846967915e-07,0.13015396893,0.170796334744,9.79756832123,9e-08,0.0,0.0,0.0,9e-08,0.0,0.0,0.0,9e-08
1560461638927576386,33329,1560461638922588608,base_link,0.00986498125379,0.000402795784857,0.648001695099,0.761574955295,1.0,0.0,0.0,0.0,1.0,0.0,0.0,0.0,1.0,0.000211374339415,0.000775280408561,0.00762906717137,1.21846967915e-07,0.0,0.0,0.0,1.21846967915e-07,0.0,0.0,0.0,1.21846967915e-07,0.104878000915,0.144795954227,9.83100891113,9e-08,0.0,0.0,0.0,9e-08,0.0,0.0,0.0,9e-08
1560461638946301546,33330,1560461638942588608,base_link,0.00986597137545,0.000402060519914,0.648071158373,0.761515775851,1.0,0.0,0.0,0.0,1.0,0.0,0.0,0.0,1.0,0.000632660579868,-0.00103406165726,0.0073074484244,1.21846967915e-07,0.0,0.0,0.0,1.21846967915e-07,0.0,0.0,0.0,1.21846967915e-07,0.121291577816,0.135624855757,9.81955051422,9e-08,0.0,0.0,0.0,9e-08,0.0,0.0,0.0,9e-08
1560461638969181712,33331,1560461638966586816,base_link,0.00986717815826,0.000399019032104,0.648151153092,0.761447750838,1.0,0.0,0.0,0.0,1.0,0.0,0.0,0.0,1.0,9.6699615824e-05,-0.00146227853838,0.00699885794893,1.21846967915e-07,0.0,0.0,0.0,1.21846967915e-07,0.0,0.0,0.0,1.21846967915e-07,0.132592558861,0.115411132574,9.77466964722,9e-08,0.0,0.0,0.0,9e-08,0.0,0.0,0.0,9e-08
1560461638988969835,33332,1560461638986586816,base_link,0.00986055418833,0.000394080936111,0.648219020055,0.761390083412,1.0,0.0,0.0,0.0,1.0,0.0,0.0,0.0,1.0,-0.000854762736708,3.13207274303e-05,0.00753786973655,1.21846967915e-07,0.0,0.0,0.0,1.21846967915e-07,0.0,0.0,0.0,1.21846967915e-07,0.079205095768,0.163616448641,9.80721950531,9e-08,0.0,0.0,0.0,9e-08,0.0,0.0,0.0,9e-08
1560461639008978708,33333,1560461639006586816,base_link,0.00985808234152,0.000393293646152,0.648284300255,0.761334496987,1.0,0.0,0.0,0.0,1.0,0.0,0.0,0.0,1.0,0.000630035763606,0.000669796951115,0.00709111941978,1.21846967915e-07,0.0,0.0,0.0,1.21846967915e-07,0.0,0.0,0.0,1.21846967915e-07,0.11162853241,0.145085796714,9.80784225464,9e-08,0.0,0.0,0.0,9e-08,0.0,0.0,0.0,9e-08
1560461639026413714,33334,1560461639022586816,base_link,0.00985587358324,0.000387403624072,0.648335677263,0.761290790706,1.0,0.0,0.0,0.0,1.0,0.0,0.0,0.0,1.0,0.000729027029593,0.00109115533996,0.006237430498,1.21846967915e-07,0.0,0.0,0.0,1.21846967915e-07,0.0,0.0,0.0,1.21846967915e-07,0.121443338692,0.150739714503,9.79817676544,9e-08,0.0,0.0,0.0,9e-08,0.0,0.0,0.0,9e-08
1560461639049366753,33335,1560461639046586816,base_link,0.00984030789598,0.000401692393534,0.648411810276,0.761226121635,1.0,0.0,0.0,0.0,1.0,0.0,0.0,0.0,1.0,0.000738728267606,0.0011964419391,0.00708450051025,1.21846967915e-07,0.0,0.0,0.0,1.21846967915e-07,0.0,0.0,0.0,1.21846967915e-07,0.0941876620054,0.149235799909,9.78956890106,9e-08,0.0,0.0,0.0,9e-08,0.0,0.0,0.0,9e-08
1560461639066560753,33336,1560461639062584768,base_link,0.00984686008456,0.00040160118512,0.648465647607,0.761180207912,1.0,0.0,0.0,0.0,1.0,0.0,0.0,0.0,1.0,0.000109046479338,-0.00156543194316,0.00806557573378,1.21846967915e-07,0.0,0.0,0.0,1.21846967915e-07,0.0,0.0,0.0,1.21846967915e-07,0.154719501734,0.147728472948,9.75471878052,9e-08,0.0,0.0,0.0,9e-08,0.0,0.0,0.0,9e-08
1560461639087458669,33337,1560461639082584768,base_link,0.00985012679459,0.000392539941962,0.648534541899,0.761121513157,1.0,0.0,0.0,0.0,1.0,0.0,0.0,0.0,1.0,0.00127521192189,-0.000286520808004,0.00772368302569,1.21846967915e-07,0.0,0.0,0.0,1.21846967915e-07,0.0,0.0,0.0,1.21846967915e-07,0.107779562473,0.123870536685,9.80474472046,9e-08,0.0,0.0,0.0,9e-08,0.0,0.0,0.0,9e-08
1560461639105966923,33338,1560461639102584768,base_link,0.00984612646598,0.000399568916768,0.648606397008,0.761060194761,1.0,0.0,0.0,0.0,1.0,0.0,0.0,0.0,1.0,9.73633286776e-05,0.000869473558851,0.00773979909718,1.21846967915e-07,0.0,0.0,0.0,1.21846967915e-07,0.0,0.0,0.0,1.21846967915e-07,0.161048904061,0.128227233887,9.75134468079,9e-08,0.0,0.0,0.0,9e-08,0.0,0.0,0.0,9e-08
1560461639129797913,33339,1560461639126584768,base_link,0.00984249887355,0.000402885676183,0.648678489192,0.76099889217,1.0,0.0,0.0,0.0,1.0,0.0,0.0,0.0,1.0,0.00156887201592,0.000237285392359,0.00591491162777,1.21846967915e-07,0.0,0.0,0.0,1.21846967915e-07,0.0,0.0,0.0,1.21846967915e-07,0.125291094184,0.135506361723,9.79820919037,9e-08,0.0,0.0,0.0,9e-08,0.0,0.0,0.0,9e-08
1560461639146715235,33340,1560461639142584768,base_link,0.00984184987794,0.000405603818639,0.648729149704,0.760955733797,1.0,0.0,0.0,0.0,1.0,0.0,0.0,0.0,1.0,-0.000857642211486,-0.000181468669325,0.0074406680651,1.21846967915e-07,0.0,0.0,0.0,1.21846967915e-07,0.0,0.0,0.0,1.21846967915e-07,0.121739469469,0.138083800673,9.78592967987,9e-08,0.0,0.0,0.0,9e-08,0.0,0.0,0.0,9e-08
1560461639169325472,33341,1560461639166582720,base_link,0.00983382979365,0.000402627526735,0.648800451635,0.760895052871,1.0,0.0,0.0,0.0,1.0,0.0,0.0,0.0,1.0,0.00147898949217,-0.000496993598063,0.00698605552316,1.21846967915e-07,0.0,0.0,0.0,1.21846967915e-07,0.0,0.0,0.0,1.21846967915e-07,0.124867238104,0.117907375097,9.80290222168,9e-08,0.0,0.0,0.0,9e-08,0.0,0.0,0.0,9e-08
1560461639185468878,33342,1560461639182582720,base_link,0.00982973397608,0.00039789357954,0.648856944217,0.760846905365,1.0,0.0,0.0,0.0,1.0,0.0,0.0,0.0,1.0,0.000519379856996,0.000778522808105,0.00783976912498,1.21846967915e-07,0.0,0.0,0.0,1.21846967915e-07,0.0,0.0,0.0,1.21846967915e-07,0.103753998876,0.124349489808,9.79735088348,9e-08,0.0,0.0,0.0,9e-08,0.0,0.0,0.0,9e-08
1560461639207333028,33343,1560461639202582720,base_link,0.00983514161431,0.000402443792818,0.648920696594,0.760792509589,1.0,0.0,0.0,0.0,1.0,0.0,0.0,0.0,1.0,0.00146153266542,-0.00146002194379,0.00614632572979,1.21846967915e-07,0.0,0.0,0.0,1.21846967915e-07,0.0,0.0,0.0,1.21846967915e-07,0.111675538123,0.125929459929,9.77639579773,9e-08,0.0,0.0,0.0,9e-08,0.0,0.0,0.0,9e-08
1560461639226569883,33344,1560461639222582720,base_link,0.00982950579041,0.000408168520226,0.648982441727,0.760739783882,1.0,0.0,0.0,0.0,1.0,0.0,0.0,0.0,1.0,-0.000230444216868,0.00077618600335,0.00733244419098,1.21846967915e-07,0.0,0.0,0.0,1.21846967915e-07,0.0,0.0,0.0,1.21846967915e-07,0.112200498581,0.15749719739,9.81435966492,9e-08,0.0,0.0,0.0,9e-08,0.0,0.0,0.0,9e-08
1560461639248978767,33345,1560461639243582720,base_link,0.00982464408558,0.00041507303012,0.64904687899,0.760684871806,1.0,0.0,0.0,0.0,1.0,0.0,0.0,0.0,1.0,0.000615868484601,-0.000605503330007,0.00627099350095,1.21846967915e-07,0.0,0.0,0.0,1.21846967915e-07,0.0,0.0,0.0,1.21846967915e-07,0.144038915634,0.125832602382,9.77349281311,9e-08,0.0,0.0,0.0,9e-08,0.0,0.0,0.0,9e-08
1560461639267261475,33346,1560461639263579904,base_link,0.00982833193483,0.000422563973898,0.649112522706,0.760628837571,1.0,0.0,0.0,0.0,1.0,0.0,0.0,0.0,1.0,0.000197905799723,0.000774274230935,0.0068951677531,1.21846967915e-07,0.0,0.0,0.0,1.21846967915e-07,0.0,0.0,0.0,1.21846967915e-07,0.119524151087,0.150230169296,9.79391956329,9e-08,0.0,0.0,0.0,9e-08,0.0,0.0,0.0,9e-08
1560461639288286654,33347,1560461639283579904,base_link,0.00982652423015,0.000426720048288,0.64917173376,0.760578308768,1.0,0.0,0.0,0.0,1.0,0.0,0.0,0.0,1.0,0.00125159253366,-0.00114545668475,0.00582574121654,1.21846967915e-07,0.0,0.0,0.0,1.21846967915e-07,0.0,0.0,0.0,1.21846967915e-07,0.107812695205,0.144341737032,9.7700586319,9e-08,0.0,0.0,0.0,9e-08,0.0,0.0,0.0,9e-08
1560461639307231029,33348,1560461639303579904,base_link,0.00983053147348,0.00042726532314,0.649227119987,0.760530930442,1.0,0.0,0.0,0.0,1.0,0.0,0.0,0.0,1.0,-0.000347934343154,-0.000403815123718,0.00585196632892,1.21846967915e-07,0.0,0.0,0.0,1.21846967915e-07,0.0,0.0,0.0,1.21846967915e-07,0.0947755053639,0.131651774049,9.78824710846,9e-08,0.0,0.0,0.0,9e-08,0.0,0.0,0.0,9e-08
1560461639327379449,33349,1560461639323579904,base_link,0.00982970697576,0.000427591961216,0.649285409079,0.760481155014,1.0,0.0,0.0,0.0,1.0,0.0,0.0,0.0,1.0,-0.00119696441106,0.000337159028277,0.00563507527113,1.21846967915e-07,0.0,0.0,0.0,1.21846967915e-07,0.0,0.0,0.0,1.21846967915e-07,0.10410925746,0.117906995118,9.80237674713,9e-08,0.0,0.0,0.0,9e-08,0.0,0.0,0.0,9e-08
1560461639348651613,33350,1560461639343579904,base_link,0.00982225356902,0.000427858013198,0.649347633632,0.760428202767,1.0,0.0,0.0,0.0,1.0,0.0,0.0,0.0,1.0,-0.00129610742442,-0.000290067633614,0.00681495992467,1.21846967915e-07,0.0,0.0,0.0,1.21846967915e-07,0.0,0.0,0.0,1.21846967915e-07,0.102941684425,0.148708313704,9.76383495331,9e-08,0.0,0.0,0.0,9e-08,0.0,0.0,0.0,9e-08
1560461639367815169,33351,1560461639363577344,base_link,0.00983121932322,0.000420802696611,0.649417713305,0.760368238339,1.0,0.0,0.0,0.0,1.0,0.0,0.0,0.0,1.0,0.000104882354208,-0.00154940038919,0.00797710288316,1.21846967915e-07,0.0,0.0,0.0,1.21846967915e-07,0.0,0.0,0.0,1.21846967915e-07,0.0958140194416,0.135825514793,9.76982307434,9e-08,0.0,0.0,0.0,9e-08,0.0,0.0,0.0,9e-08
1560461639386382707,33352,1560461639383577344,base_link,0.00983552949703,0.000427174773271,0.649476450207,0.760317930806,1.0,0.0,0.0,0.0,1.0,0.0,0.0,0.0,1.0,0.0010308152996,0.00140631000977,0.00603543175384,1.21846967915e-07,0.0,0.0,0.0,1.21846967915e-07,0.0,0.0,0.0,1.21846967915e-07,0.148666620255,0.127982959151,9.80039691925,9e-08,0.0,0.0,0.0,9e-08,0.0,0.0,0.0,9e-08
1560461639406247410,33353,1560461639403577344,base_link,0.00983421109092,0.000432985111464,0.649535397843,0.760267749715,1.0,0.0,0.0,0.0,1.0,0.0,0.0,0.0,1.0,-2.2065201847e-05,-0.000395252369344,0.00646489113569,1.21846967915e-07,0.0,0.0,0.0,1.21846967915e-07,0.0,0.0,0.0,1.21846967915e-07,0.0932147800922,0.115130804479,9.76090145111,9e-08,0.0,0.0,0.0,9e-08,0.0,0.0,0.0,9e-08
1560461639427366837,33354,1560461639423577344,base_link,0.00984350282466,0.000437236345536,0.649597501224,0.760214497172,1.0,0.0,0.0,0.0,1.0,0.0,0.0,0.0,1.0,0.000615777389612,0.000547180185094,0.00592577457428,1.21846967915e-07,0.0,0.0,0.0,1.21846967915e-07,0.0,0.0,0.0,1.21846967915e-07,0.093464538455,0.179073989391,9.7824344635,9e-08,0.0,0.0,0.0,9e-08,0.0,0.0,0.0,9e-08
1560461639448880468,33355,1560461639443577344,base_link,0.00983380180551,0.000442693045329,0.649656369834,0.760164310812,1.0,0.0,0.0,0.0,1.0,0.0,0.0,0.0,1.0,-0.000552556826733,0.000775396474637,0.00647586211562,1.21846967915e-07,0.0,0.0,0.0,1.21846967915e-07,0.0,0.0,0.0,1.21846967915e-07,0.105827771127,0.178348690271,9.74545097351,9e-08,0.0,0.0,0.0,9e-08,0.0,0.0,0.0,9e-08
1560461639467505391,33356,1560461639463574528,base_link,0.00983319462747,0.000441864596338,0.649721576278,0.760108629557,1.0,0.0,0.0,0.0,1.0,0.0,0.0,0.0,1.0,0.00126167747658,-0.000393758295104,0.00698930164799,1.21846967915e-07,0.0,0.0,0.0,1.21846967915e-07,0.0,0.0,0.0,1.21846967915e-07,0.111705422401,0.136750280857,9.79362487793,9e-08,0.0,0.0,0.0,9e-08,0.0,0.0,0.0,9e-08
1560461639487347269,33357,1560461639483574528,base_link,0.00983686206184,0.00045429659956,0.649785228555,0.760054165292,1.0,0.0,0.0,0.0,1.0,0.0,0.0,0.0,1.0,0.00147513265256,-0.000389987952076,0.00667266361415,1.21846967915e-07,0.0,0.0,0.0,1.21846967915e-07,0.0,0.0,0.0,1.21846967915e-07,0.124605923891,0.172868967056,9.86217403412,9e-08,0.0,0.0,0.0,9e-08,0.0,0.0,0.0,9e-08
1560461639506685834,33358,1560461639503574528,base_link,0.00983235794668,0.000454947570806,0.649844971713,0.760003104385,1.0,0.0,0.0,0.0,1.0,0.0,0.0,0.0,1.0,-0.000218893837882,0.00130896351766,0.00742649659514,1.21846967915e-07,0.0,0.0,0.0,1.21846967915e-07,0.0,0.0,0.0,1.21846967915e-07,0.105685546994,0.134550720453,9.84076023102,9e-08,0.0,0.0,0.0,9e-08,0.0,0.0,0.0,9e-08
1560461639529091299,33359,1560461639523574528,base_link,0.00982377711174,0.000463014741028,0.649905668443,0.759951342786,1.0,0.0,0.0,0.0,1.0,0.0,0.0,0.0,1.0,0.00126438552979,0.000988879590295,0.00655703246593,1.21846967915e-07,0.0,0.0,0.0,1.21846967915e-07,0.0,0.0,0.0,1.21846967915e-07,0.109703116119,0.152404353023,9.78611755371,9e-08,0.0,0.0,0.0,9e-08,0.0,0.0,0.0,9e-08
1560461639547942796,33360,1560461639543574528,base_link,0.00983021603066,0.000459051949452,0.649968124805,0.759897737264,1.0,0.0,0.0,0.0,1.0,0.0,0.0,0.0,1.0,0.000619626545813,-0.00049986114027,0.00679034460336,1.21846967915e-07,0.0,0.0,0.0,1.21846967915e-07,0.0,0.0,0.0,1.21846967915e-07,0.086031794548,0.159777730703,9.8325214386,9e-08,0.0,0.0,0.0,9e-08,0.0,0.0,0.0,9e-08
1560461639567815529,33361,1560461639563572224,base_link,0.00982433917947,0.0004590940963,0.65003072868,0.759844321401,1.0,0.0,0.0,0.0,1.0,0.0,0.0,0.0,1.0,0.000857339589857,0.000247747637331,0.00815641600639,1.21846967915e-07,0.0,0.0,0.0,1.21846967915e-07,0.0,0.0,0.0,1.21846967915e-07,0.122416451573,0.135976582766,9.74580669403,9e-08,0.0,0.0,0.0,9e-08,0.0,0.0,0.0,9e-08
1560461639586089182,33362,1560461639580572224,base_link,0.00983188642881,0.000456016388542,0.650080972991,0.759801326348,1.0,0.0,0.0,0.0,1.0,0.0,0.0,0.0,1.0,-0.000224143077503,-0.00156195950694,0.00723277963698,1.21846967915e-07,0.0,0.0,0.0,1.21846967915e-07,0.0,0.0,0.0,1.21846967915e-07,0.148810386658,0.132841348648,9.76048946381,9e-08,0.0,0.0,0.0,9e-08,0.0,0.0,0.0,9e-08
1560461639608109182,33363,1560461639605572224,base_link,0.00983793285521,0.000457292318526,0.650159956186,0.759733554215,1.0,0.0,0.0,0.0,1.0,0.0,0.0,0.0,1.0,-0.000228929027799,0.000668636523187,0.00701311184093,1.21846967915e-07,0.0,0.0,0.0,1.21846967915e-07,0.0,0.0,0.0,1.21846967915e-07,0.0992342531681,0.138172328472,9.78528881073,9e-08,0.0,0.0,0.0,9e-08,0.0,0.0,0.0,9e-08
1560461639628887356,33364,1560461639625572224,base_link,0.00982631547154,0.000456426991043,0.650226147811,0.759677140658,1.0,0.0,0.0,0.0,1.0,0.0,0.0,0.0,1.0,-0.00138965633232,0.000781958573498,0.0078803692013,1.21846967915e-07,0.0,0.0,0.0,1.21846967915e-07,0.0,0.0,0.0,1.21846967915e-07,0.0894455909729,0.165822327137,9.80129623413,9e-08,0.0,0.0,0.0,9e-08,0.0,0.0,0.0,9e-08
1560461639647854178,33365,1560461639645572224,base_link,0.00982334214309,0.000458294623267,0.65029223407,0.759620579588,1.0,0.0,0.0,0.0,1.0,0.0,0.0,0.0,1.0,-0.00116530794185,0.000786264310591,0.00862318836153,1.21846967915e-07,0.0,0.0,0.0,1.21846967915e-07,0.0,0.0,0.0,1.21846967915e-07,0.0859899744391,0.162153482437,9.82874202728,9e-08,0.0,0.0,0.0,9e-08,0.0,0.0,0.0,9e-08
1560461639668943013,33366,1560461639665570176,base_link,0.00981818738595,0.000455500748192,0.650355032874,0.759566800209,1.0,0.0,0.0,0.0,1.0,0.0,0.0,0.0,1.0,-0.000540349574294,-0.000922726118006,0.00766803324223,1.21846967915e-07,0.0,0.0,0.0,1.21846967915e-07,0.0,0.0,0.0,1.21846967915e-07,0.114268198609,0.141199439764,9.80806159973,9e-08,0.0,0.0,0.0,9e-08,0.0,0.0,0.0,9e-08
1560461639688080770,33367,1560461639685570176,base_link,0.00981364507521,0.000457169829248,0.650417673628,0.759513263175,1.0,0.0,0.0,0.0,1.0,0.0,0.0,0.0,1.0,0.00105865637306,-0.00124049279839,0.0077579151839,1.21846967915e-07,0.0,0.0,0.0,1.21846967915e-07,0.0,0.0,0.0,1.21846967915e-07,0.131190553308,0.133433878422,9.78664779663,9e-08,0.0,0.0,0.0,9e-08,0.0,0.0,0.0,9e-08
1560461639708598132,33368,1560461639705570176,base_link,0.00981635827858,0.000454947241533,0.650477943621,0.759461591138,1.0,0.0,0.0,0.0,1.0,0.0,0.0,0.0,1.0,0.000420941360062,-0.000400644843467,0.00732664531097,1.21846967915e-07,0.0,0.0,0.0,1.21846967915e-07,0.0,0.0,0.0,1.21846967915e-07,0.0892251804471,0.159391462803,9.78158187866,9e-08,0.0,0.0,0.0,9e-08,0.0,0.0,0.0,9e-08
1560461639728195510,33369,1560461639725570176,base_link,0.00980797797045,0.000460070388533,0.650538945916,0.759409523975,1.0,0.0,0.0,0.0,1.0,0.0,0.0,0.0,1.0,-0.000768804806285,0.00120477518067,0.00659848563373,1.21846967915e-07,0.0,0.0,0.0,1.21846967915e-07,0.0,0.0,0.0,1.21846967915e-07,0.133765146136,0.171095237136,9.797706604,9e-08,0.0,0.0,0.0,9e-08,0.0,0.0,0.0,9e-08
1560461639748885089,33370,1560461639745570176,base_link,0.00980820615612,0.000459069730153,0.650591908699,0.759364147625,1.0,0.0,0.0,0.0,1.0,0.0,0.0,0.0,1.0,0.00272983964533,-0.00168348290026,0.00550088938326,1.21846967915e-07,0.0,0.0,0.0,1.21846967915e-07,0.0,0.0,0.0,1.21846967915e-07,0.119994699955,0.153548628092,9.82768630981,9e-08,0.0,0.0,0.0,9e-08,0.0,0.0,0.0,9e-08
1560461639768097895,33371,1560461639765568128,base_link,0.00981593384665,0.000456490540588,0.650658384816,0.759307028108,1.0,0.0,0.0,0.0,1.0,0.0,0.0,0.0,1.0,0.00116711005103,0.00131894939113,0.00794270262122,1.21846967915e-07,0.0,0.0,0.0,1.21846967915e-07,0.0,0.0,0.0,1.21846967915e-07,0.132830634713,0.150377288461,9.78339004517,9e-08,0.0,0.0,0.0,9e-08,0.0,0.0,0.0,9e-08
1560461639788409431,33372,1560461639785568128,base_link,0.00981239087719,0.000454323270612,0.6507207042,0.759253643856,1.0,0.0,0.0,0.0,1.0,0.0,0.0,0.0,1.0,-0.000121410077554,-0.00113267125562,0.00712555460632,1.21846967915e-07,0.0,0.0,0.0,1.21846967915e-07,0.0,0.0,0.0,1.21846967915e-07,0.113348506391,0.128208175302,9.8150844574,9e-08,0.0,0.0,0.0,9e-08,0.0,0.0,0.0,9e-08
1560461639807998560,33373,1560461639805568128,base_link,0.00980517849774,0.000462700615298,0.650781985718,0.759201213177,1.0,0.0,0.0,0.0,1.0,0.0,0.0,0.0,1.0,0.00103623187169,0.000670393113978,0.00667412905023,1.21846967915e-07,0.0,0.0,0.0,1.21846967915e-07,0.0,0.0,0.0,1.21846967915e-07,0.108737073839,0.116162821651,9.79753494263,9e-08,0.0,0.0,0.0,9e-08,0.0,0.0,0.0,9e-08
1560461639829304767,33374,1560461639825568128,base_link,0.00980756341668,0.000464178059902,0.650845126965,0.759147091355,1.0,0.0,0.0,0.0,1.0,0.0,0.0,0.0,1.0,0.00106158177368,-0.00102432374842,0.00806582253426,1.21846967915e-07,0.0,0.0,0.0,1.21846967915e-07,0.0,0.0,0.0,1.21846967915e-07,0.12614274025,0.117213942111,9.81431674957,9e-08,0.0,0.0,0.0,9e-08,0.0,0.0,0.0,9e-08
1560461639845970588,33375,1560461639841568128,base_link,0.00979826839022,0.000471301865117,0.650899343617,0.759100714016,1.0,0.0,0.0,0.0,1.0,0.0,0.0,0.0,1.0,-0.000870455463883,0.00110228720587,0.0070187873207,1.21846967915e-07,0.0,0.0,0.0,1.21846967915e-07,0.0,0.0,0.0,1.21846967915e-07,0.0756222605705,0.129447504878,9.77808666229,9e-08,0.0,0.0,0.0,9e-08,0.0,0.0,0.0,9e-08
1560461639866493147,33376,1560461639861563264,base_link,0.00979888939769,0.000471546185129,0.650957674856,0.75905064356,1.0,0.0,0.0,0.0,1.0,0.0,0.0,0.0,1.0,0.00124214601237,-0.000817233463749,0.00583398062736,1.21846967915e-07,0.0,0.0,0.0,1.21846967915e-07,0.0,0.0,0.0,1.21846967915e-07,0.104328379035,0.164060354233,9.82509422302,9e-08,0.0,0.0,0.0,9e-08,0.0,0.0,0.0,9e-08
1560461639887766344,33377,1560461639885563264,base_link,0.00980839878039,0.00046925708442,0.651033681429,0.758985426581,1.0,0.0,0.0,0.0,1.0,0.0,0.0,0.0,1.0,0.000948423228692,-0.000171927269548,0.00785600300878,1.21846967915e-07,0.0,0.0,0.0,1.21846967915e-07,0.0,0.0,0.0,1.21846967915e-07,0.11307477206,0.161671698093,9.76279640198,9e-08,0.0,0.0,0.0,9e-08,0.0,0.0,0.0,9e-08
1560461639908341283,33378,1560461639905563264,base_link,0.00979576756745,0.000472971604717,0.651099467391,0.758928997219,1.0,0.0,0.0,0.0,1.0,0.0,0.0,0.0,1.0,0.000193046842469,0.000460984534584,0.00701292417943,1.21846967915e-07,0.0,0.0,0.0,1.21846967915e-07,0.0,0.0,0.0,1.21846967915e-07,0.125526487827,0.14328224957,9.80328083038,9e-08,0.0,0.0,0.0,9e-08,0.0,0.0,0.0,9e-08
1560461639925635079,33379,1560461639921563264,base_link,0.00979438659962,0.000473410195359,0.651144406468,0.758890548756,1.0,0.0,0.0,0.0,1.0,0.0,0.0,0.0,1.0,-0.000667141343001,-0.00134986639023,0.00649881921709,1.21846967915e-07,0.0,0.0,0.0,1.21846967915e-07,0.0,0.0,0.0,1.21846967915e-07,0.127163946629,0.110794521868,9.74722957611,9e-08,0.0,0.0,0.0,9e-08,0.0,0.0,0.0,9e-08
1560461639947424151,33380,1560461639942563264,base_link,0.00979719265777,0.000465732224941,0.651210471653,0.758833840172,1.0,0.0,0.0,0.0,1.0,0.0,0.0,0.0,1.0,-0.00161598599516,-0.000389726599678,0.00682629039511,1.21846967915e-07,0.0,0.0,0.0,1.21846967915e-07,0.0,0.0,0.0,1.21846967915e-07,0.119946911931,0.147167384624,9.81275558472,9e-08,0.0,0.0,0.0,9e-08,0.0,0.0,0.0,9e-08
1560461639966520287,33381,1560461639962561472,base_link,0.00978660260353,0.000470763504982,0.651276310299,0.75877744242,1.0,0.0,0.0,0.0,1.0,0.0,0.0,0.0,1.0,8.6942629423e-05,0.000887500238605,0.00701584247872,1.21846967915e-07,0.0,0.0,0.0,1.21846967915e-07,0.0,0.0,0.0,1.21846967915e-07,0.112422771752,0.125051528215,9.74781799316,9e-08,0.0,0.0,0.0,9e-08,0.0,0.0,0.0,9e-08
1560461639986754830,33382,1560461639982561472,base_link,0.00980055156403,0.000462034168256,0.651339035346,0.758723399623,1.0,0.0,0.0,0.0,1.0,0.0,0.0,0.0,1.0,0.000740302959457,-0.00134214153513,0.00808328017592,1.21846967915e-07,0.0,0.0,0.0,1.21846967915e-07,0.0,0.0,0.0,1.21846967915e-07,0.137794822454,0.151576280594,9.82616901398,9e-08,0.0,0.0,0.0,9e-08,0.0,0.0,0.0,9e-08
1560461640006003769,33383,1560461640002561472,base_link,0.00980200167904,0.000466844835887,0.651401465365,0.758669736149,1.0,0.0,0.0,0.0,1.0,0.0,0.0,0.0,1.0,0.000283081637463,0.000776577857323,0.00605958048254,1.21846967915e-07,0.0,0.0,0.0,1.21846967915e-07,0.0,0.0,0.0,1.21846967915e-07,0.141486674547,0.182035535574,9.81848049164,9e-08,0.0,0.0,0.0,9e-08,0.0,0.0,0.0,9e-08
1560461640027283240,33384,1560461640022561472,base_link,0.00980246364801,0.000467676906873,0.65146939028,0.758611420715,1.0,0.0,0.0,0.0,1.0,0.0,0.0,0.0,1.0,0.000201777889743,0.000676014227793,0.00776120834053,1.21846967915e-07,0.0,0.0,0.0,1.21846967915e-07,0.0,0.0,0.0,1.21846967915e-07,0.0804107189178,0.153318360448,9.80376434326,9e-08,0.0,0.0,0.0,9e-08,0.0,0.0,0.0,9e-08
1560461640046759919,33385,1560461640042561472,base_link,0.00979963717498,0.000461486588498,0.651531793958,0.75855795217,1.0,0.0,0.0,0.0,1.0,0.0,0.0,0.0,1.0,-0.00205716234632,0.000350395566784,0.00598653126508,1.21846967915e-07,0.0,0.0,0.0,1.21846967915e-07,0.0,0.0,0.0,1.21846967915e-07,0.0998927205801,0.186388552189,9.84153461456,9e-08,0.0,0.0,0.0,9e-08,0.0,0.0,0.0,9e-08
1560461640066478818,33386,1560461640062559424,base_link,0.00980595360463,0.000460643322255,0.651592174587,0.75850600091,1.0,0.0,0.0,0.0,1.0,0.0,0.0,0.0,1.0,0.000934935873374,0.00024769839365,0.00690687913448,1.21846967915e-07,0.0,0.0,0.0,1.21846967915e-07,0.0,0.0,0.0,1.21846967915e-07,0.106229424477,0.156306281686,9.81520462036,9e-08,0.0,0.0,0.0,9e-08,0.0,0.0,0.0,9e-08
1560461640086141597,33387,1560461640082559424,base_link,0.00980549525765,0.000466623564932,0.651653060978,0.758453712477,1.0,0.0,0.0,0.0,1.0,0.0,0.0,0.0,1.0,0.00127526128199,-0.000382122176234,0.00850342586637,1.21846967915e-07,0.0,0.0,0.0,1.21846967915e-07,0.0,0.0,0.0,1.21846967915e-07,0.118278644979,0.107678927481,9.79121017456,9e-08,0.0,0.0,0.0,9e-08,0.0,0.0,0.0,9e-08
1560461640107284529,33388,1560461640102559424,base_link,0.00980973233302,0.000470157973307,0.651717793269,0.758397999611,1.0,0.0,0.0,0.0,1.0,0.0,0.0,0.0,1.0,-2.29523575399e-05,0.000781577429734,0.00680631538853,1.21846967915e-07,0.0,0.0,0.0,1.21846967915e-07,0.0,0.0,0.0,1.21846967915e-07,0.142712339759,0.15087749064,9.81179523468,9e-08,0.0,0.0,0.0,9e-08,0.0,0.0,0.0,9e-08
1560461640126401488,33389,1560461640122559424,base_link,0.0098016888704,0.000476903444702,0.651781508767,0.758343303539,1.0,0.0,0.0,0.0,1.0,0.0,0.0,0.0,1.0,-7.69056350691e-06,-0.000182960298844,0.00769240316004,1.21846967915e-07,0.0,0.0,0.0,1.21846967915e-07,0.0,0.0,0.0,1.21846967915e-07,0.097955390811,0.1417863518,9.81261920929,9e-08,0.0,0.0,0.0,9e-08,0.0,0.0,0.0,9e-08
1560461640146971800,33390,1560461640142559424,base_link,0.00979925653625,0.000480113519906,0.65184552983,0.758288301901,1.0,0.0,0.0,0.0,1.0,0.0,0.0,0.0,1.0,0.000189413171029,0.00120425049681,0.0069391396828,1.21846967915e-07,0.0,0.0,0.0,1.21846967915e-07,0.0,0.0,0.0,1.21846967915e-07,0.118322461843,0.116204291582,9.83864688873,9e-08,0.0,0.0,0.0,9e-08,0.0,0.0,0.0,9e-08
1560461640167095568,33391,1560461640162557632,base_link,0.00979625423184,0.000472148424082,0.651910878518,0.758232309813,1.0,0.0,0.0,0.0,1.0,0.0,0.0,0.0,1.0,0.00029279832961,2.85927671939e-05,0.00672804983333,1.21846967915e-07,0.0,0.0,0.0,1.21846967915e-07,0.0,0.0,0.0,1.21846967915e-07,0.124511249363,0.137279465795,9.76588916779,9e-08,0.0,0.0,0.0,9e-08,0.0,0.0,0.0,9e-08
1560461640185640652,33392,1560461640182557632,base_link,0.00978769973868,0.00047517641173,0.651970911436,0.758180790559,1.0,0.0,0.0,0.0,1.0,0.0,0.0,0.0,1.0,0.000704289181158,0.000351216294803,0.00587595673278,1.21846967915e-07,0.0,0.0,0.0,1.21846967915e-07,0.0,0.0,0.0,1.21846967915e-07,0.103515207767,0.137239828706,9.84172916412,9e-08,0.0,0.0,0.0,9e-08,0.0,0.0,0.0,9e-08
1560461640205546584,33393,1560461640202557632,base_link,0.00978933885596,0.000478205716466,0.652033288771,0.758127095474,1.0,0.0,0.0,0.0,1.0,0.0,0.0,0.0,1.0,0.000958537973929,-0.000811010831967,0.00778663577512,1.21846967915e-07,0.0,0.0,0.0,1.21846967915e-07,0.0,0.0,0.0,1.21846967915e-07,0.12508879602,0.131337746978,9.80518245697,9e-08,0.0,0.0,0.0,9e-08,0.0,0.0,0.0,9e-08
1560461640226504110,33394,1560461640222557632,base_link,0.00978682354522,0.000477442134109,0.652094670388,0.758074311815,1.0,0.0,0.0,0.0,1.0,0.0,0.0,0.0,1.0,0.000407630053815,0.000149558647536,0.00663743633777,1.21846967915e-07,0.0,0.0,0.0,1.21846967915e-07,0.0,0.0,0.0,1.21846967915e-07,0.118423879147,0.12987883389,9.80217266083,9e-08,0.0,0.0,0.0,9e-08,0.0,0.0,0.0,9e-08
1560461640246869767,33395,1560461640242557632,base_link,0.00977866319095,0.000484872821065,0.652160398398,0.758017856111,1.0,0.0,0.0,0.0,1.0,0.0,0.0,0.0,1.0,0.000191201805137,0.000349757028744,0.00716068642214,1.21846967915e-07,0.0,0.0,0.0,1.21846967915e-07,0.0,0.0,0.0,1.21846967915e-07,0.128743588924,0.133328050375,9.73002052307,9e-08,0.0,0.0,0.0,9e-08,0.0,0.0,0.0,9e-08
1560461640266217999,33396,1560461640262555584,base_link,0.0097919871927,0.00048642204702,0.652228786928,0.757958908475,1.0,0.0,0.0,0.0,1.0,0.0,0.0,0.0,1.0,0.00267261848785,-0.00208207778633,0.00969226006418,1.21846967915e-07,0.0,0.0,0.0,1.21846967915e-07,0.0,0.0,0.0,1.21846967915e-07,0.113040551543,0.127778708935,9.76698875427,9e-08,0.0,0.0,0.0,9e-08,0.0,0.0,0.0,9e-08
1560461640286280441,33397,1560461640283555584,base_link,0.00980308893602,0.000493931430045,0.652299430315,0.757897958864,1.0,0.0,0.0,0.0,1.0,0.0,0.0,0.0,1.0,0.00210580229759,-0.00081686291378,0.00725106755272,1.21846967915e-07,0.0,0.0,0.0,1.21846967915e-07,0.0,0.0,0.0,1.21846967915e-07,0.111990012228,0.153563320637,9.79565906525,9e-08,0.0,0.0,0.0,9e-08,0.0,0.0,0.0,9e-08
1560461640308355609,33398,1560461640303555584,base_link,0.00979809683938,0.000490435546524,0.652363683185,0.757842641125,1.0,0.0,0.0,0.0,1.0,0.0,0.0,0.0,1.0,-0.000860822154209,-0.000280417851172,0.00813471805304,1.21846967915e-07,0.0,0.0,0.0,1.21846967915e-07,0.0,0.0,0.0,1.21846967915e-07,0.135956212878,0.128443673253,9.80583572388,9e-08,0.0,0.0,0.0,9e-08,0.0,0.0,0.0,9e-08
1560461640326312625,33399,1560461640323555584,base_link,0.00980401419105,0.00048612109218,0.652427482977,0.757787607878,1.0,0.0,0.0,0.0,1.0,0.0,0.0,0.0,1.0,0.0015648426488,-0.00039374519838,0.0065066809766,1.21846967915e-07,0.0,0.0,0.0,1.21846967915e-07,0.0,0.0,0.0,1.21846967915e-07,0.133047491312,0.168368190527,9.80379390717,9e-08,0.0,0.0,0.0,9e-08,0.0,0.0,0.0,9e-08
1560461640350381234,33400,1560461640347555584,base_link,0.0097884448818,0.000487704233177,0.652502683492,0.757723028369,1.0,0.0,0.0,0.0,1.0,0.0,0.0,0.0,1.0,-0.00139771099202,0.00153108022641,0.00738398777321,1.21846967915e-07,0.0,0.0,0.0,1.21846967915e-07,0.0,0.0,0.0,1.21846967915e-07,0.111252225935,0.17648395896,9.8074836731,9e-08,0.0,0.0,0.0,9e-08,0.0,0.0,0.0,9e-08
1560461640366407534,33401,1560461640363552000,base_link,0.00977670599667,0.000494220860356,0.652551373638,0.757681250305,1.0,0.0,0.0,0.0,1.0,0.0,0.0,0.0,1.0,0.000304780143779,0.00046339770779,0.00779879512265,1.21846967915e-07,0.0,0.0,0.0,1.21846967915e-07,0.0,0.0,0.0,1.21846967915e-07,0.1013777107,0.130715176463,9.78647613525,9e-08,0.0,0.0,0.0,9e-08,0.0,0.0,0.0,9e-08
1560461640387030384,33402,1560461640383552000,base_link,0.00979204316899,0.000495014077216,0.652618534642,0.757623277315,1.0,0.0,0.0,0.0,1.0,0.0,0.0,0.0,1.0,0.00179614347871,-0.0020901968237,0.00789860449731,1.21846967915e-07,0.0,0.0,0.0,1.21846967915e-07,0.0,0.0,0.0,1.21846967915e-07,0.105547651649,0.1565246135,9.81319618225,9e-08,0.0,0.0,0.0,9e-08,0.0,0.0,0.0,9e-08
1560461640408111863,33403,1560461640403552000,base_link,0.00978931745327,0.000499101004432,0.652681470423,0.757569108078,1.0,0.0,0.0,0.0,1.0,0.0,0.0,0.0,1.0,0.000609629671089,0.000671204645187,0.00673129409552,1.21846967915e-07,0.0,0.0,0.0,1.21846967915e-07,0.0,0.0,0.0,1.21846967915e-07,0.124417088926,0.14820034802,9.76344585419,9e-08,0.0,0.0,0.0,9e-08,0.0,0.0,0.0,9e-08
1560461640427902973,33404,1560461640423552000,base_link,0.00978715413456,0.000505099686356,0.652739074628,0.757519511774,1.0,0.0,0.0,0.0,1.0,0.0,0.0,0.0,1.0,-0.000788870151155,-0.000498351175338,0.00579986255616,1.21846967915e-07,0.0,0.0,0.0,1.21846967915e-07,0.0,0.0,0.0,1.21846967915e-07,0.08195784688,0.130834147334,9.80845737457,9e-08,0.0,0.0,0.0,9e-08,0.0,0.0,0.0,9e-08
1560461640447088550,33405,1560461640443552000,base_link,0.0097946075413,0.00050360874159,0.652805387426,0.757462218402,1.0,0.0,0.0,0.0,1.0,0.0,0.0,0.0,1.0,-0.00120476388838,-0.00060275348369,0.00654165353626,1.21846967915e-07,0.0,0.0,0.0,1.21846967915e-07,0.0,0.0,0.0,1.21846967915e-07,0.12192773819,0.14739407599,9.79602241516,9e-08,0.0,0.0,0.0,9e-08,0.0,0.0,0.0,9e-08
1560461640467144446,33406,1560461640463549952,base_link,0.00978711001208,0.000505076637298,0.652865778592,0.757410256606,1.0,0.0,0.0,0.0,1.0,0.0,0.0,0.0,1.0,-0.000872170901857,-0.00123999360949,0.0073942951858,1.21846967915e-07,0.0,0.0,0.0,1.21846967915e-07,0.0,0.0,0.0,1.21846967915e-07,0.120503805578,0.157302841544,9.8021697998,9e-08,0.0,0.0,0.0,9e-08,0.0,0.0,0.0,9e-08
1560461640486290227,33407,1560461640483549952,base_link,0.0097907316776,0.000505420068259,0.652926422638,0.757357957636,1.0,0.0,0.0,0.0,1.0,0.0,0.0,0.0,1.0,0.00103593757376,-0.00124217290431,0.00683639710769,1.21846967915e-07,0.0,0.0,0.0,1.21846967915e-07,0.0,0.0,0.0,1.21846967915e-07,0.0994082689285,0.142053425312,9.79072570801,9e-08,0.0,0.0,0.0,9e-08,0.0,0.0,0.0,9e-08
1560461640507286414,33408,1560461640503549952,base_link,0.00979704250962,0.000506123393793,0.652986808535,0.757305832521,1.0,0.0,0.0,0.0,1.0,0.0,0.0,0.0,1.0,-3.41628692695e-05,0.000352165545337,0.00641821790487,1.21846967915e-07,0.0,0.0,0.0,1.21846967915e-07,0.0,0.0,0.0,1.21846967915e-07,0.123412519693,0.154615432024,9.73279190063,9e-08,0.0,0.0,0.0,9e-08,0.0,0.0,0.0,9e-08
1560461640527380233,33409,1560461640523549952,base_link,0.00979601353383,0.000509803011232,0.653046414716,0.757254402829,1.0,0.0,0.0,0.0,1.0,0.0,0.0,0.0,1.0,0.000717603659723,0.00109616236296,0.00694145215675,1.21846967915e-07,0.0,0.0,0.0,1.21846967915e-07,0.0,0.0,0.0,1.21846967915e-07,0.127790927887,0.200685918331,9.81029510498,9e-08,0.0,0.0,0.0,9e-08,0.0,0.0,0.0,9e-08
1560461640549926583,33410,1560461640547549952,base_link,0.0097909203506,0.000498906733803,0.653123459155,0.757187979396,1.0,0.0,0.0,0.0,1.0,0.0,0.0,0.0,1.0,-0.00119651178829,-0.000596212164965,0.00771433534101,1.21846967915e-07,0.0,0.0,0.0,1.21846967915e-07,0.0,0.0,0.0,1.21846967915e-07,0.117323957384,0.14827285707,9.81529426575,9e-08,0.0,0.0,0.0,9e-08,0.0,0.0,0.0,9e-08
1560461640566524597,33411,1560461640563546880,base_link,0.00979698620406,0.000503074661994,0.653174741333,0.757143693594,1.0,0.0,0.0,0.0,1.0,0.0,0.0,0.0,1.0,0.000295075849863,-0.000180668313988,0.00705560715869,1.21846967915e-07,0.0,0.0,0.0,1.21846967915e-07,0.0,0.0,0.0,1.21846967915e-07,0.100309506059,0.137872606516,9.82652759552,9e-08,0.0,0.0,0.0,9e-08,0.0,0.0,0.0,9e-08
1560461640586304831,33412,1560461640583546880,base_link,0.00979527003708,0.000503044368946,0.653236144023,0.757090720274,1.0,0.0,0.0,0.0,1.0,0.0,0.0,0.0,1.0,-0.000794587831479,0.000248354044743,0.00568302534521,1.21846967915e-07,0.0,0.0,0.0,1.21846967915e-07,0.0,0.0,0.0,1.21846967915e-07,0.105806276202,0.135167732835,9.83922958374,9e-08,0.0,0.0,0.0,9e-08,0.0,0.0,0.0,9e-08
1560461640607262887,33413,1560461640603546880,base_link,0.00980376690759,0.000504214931809,0.653298236867,0.757037141093,1.0,0.0,0.0,0.0,1.0,0.0,0.0,0.0,1.0,0.00199073576368,3.50321643054e-05,0.00671521760523,1.21846967915e-07,0.0,0.0,0.0,1.21846967915e-07,0.0,0.0,0.0,1.21846967915e-07,0.108573228121,0.151606276631,9.79900836945,9e-08,0.0,0.0,0.0,9e-08,0.0,0.0,0.0,9e-08
1560461640627386540,33414,1560461640623546880,base_link,0.00981196776235,0.000504825402568,0.653362979695,0.756981080516,1.0,0.0,0.0,0.0,1.0,0.0,0.0,0.0,1.0,0.000924963096622,0.000883830245584,0.00672672362998,1.21846967915e-07,0.0,0.0,0.0,1.21846967915e-07,0.0,0.0,0.0,1.21846967915e-07,0.11184630543,0.120088770986,9.79832458496,9e-08,0.0,0.0,0.0,9e-08,0.0,0.0,0.0,9e-08
1560461640647103669,33415,1560461640643546880,base_link,0.00980139713518,0.000503322933273,0.653424514094,0.756928059781,1.0,0.0,0.0,0.0,1.0,0.0,0.0,0.0,1.0,0.000608449452557,0.000784274190664,0.00704426737502,1.21846967915e-07,0.0,0.0,0.0,1.21846967915e-07,0.0,0.0,0.0,1.21846967915e-07,0.113393098116,0.140122711658,9.79619407654,9e-08,0.0,0.0,0.0,9e-08,0.0,0.0,0.0,9e-08
1560461640667318858,33416,1560461640663544832,base_link,0.00979654267434,0.000501103967553,0.653486886161,0.75687428567,1.0,0.0,0.0,0.0,1.0,0.0,0.0,0.0,1.0,0.00116426451132,0.00153289444279,0.00874095782638,1.21846967915e-07,0.0,0.0,0.0,1.21846967915e-07,0.0,0.0,0.0,1.21846967915e-07,0.127102136612,0.14462660253,9.8309211731,9e-08,0.0,0.0,0.0,9e-08,0.0,0.0,0.0,9e-08
1560461640686084947,33417,1560461640683544832,base_link,0.00979932864688,0.000508871170753,0.653545148911,0.756824030822,1.0,0.0,0.0,0.0,1.0,0.0,0.0,0.0,1.0,-0.000352668372216,0.000990134314634,0.00684737181291,1.21846967915e-07,0.0,0.0,0.0,1.21846967915e-07,0.0,0.0,0.0,1.21846967915e-07,0.112664379179,0.161736696959,9.8145866394,9e-08,0.0,0.0,0.0,9e-08,0.0,0.0,0.0,9e-08
1560461640707297829,33418,1560461640703544832,base_link,0.00979380148282,0.000511976866652,0.653604992168,0.75677227976,1.0,0.0,0.0,0.0,1.0,0.0,0.0,0.0,1.0,-0.000573794764932,0.00109573663212,0.0060028899461,1.21846967915e-07,0.0,0.0,0.0,1.21846967915e-07,0.0,0.0,0.0,1.21846967915e-07,0.11645514518,0.127275645733,9.78254413605,9e-08,0.0,0.0,0.0,9e-08,0.0,0.0,0.0,9e-08
1560461640728396693,33419,1560461640723544832,base_link,0.00980410935073,0.000516341370379,0.653670198611,0.756715839862,1.0,0.0,0.0,0.0,1.0,0.0,0.0,0.0,1.0,0.00103827170096,-0.00028200505767,0.0071592531167,1.21846967915e-07,0.0,0.0,0.0,1.21846967915e-07,0.0,0.0,0.0,1.21846967915e-07,0.117054544389,0.15299063921,9.79089355469,9e-08,0.0,0.0,0.0,9e-08,0.0,0.0,0.0,9e-08
1560461640747136787,33420,1560461640743544832,base_link,0.00980603493488,0.000515410188445,0.653733329321,0.756661307108,1.0,0.0,0.0,0.0,1.0,0.0,0.0,0.0,1.0,0.00146629242226,-7.16130016372e-05,0.00833570770919,1.21846967915e-07,0.0,0.0,0.0,1.21846967915e-07,0.0,0.0,0.0,1.21846967915e-07,0.126697927713,0.11931887269,9.79802417755,9e-08,0.0,0.0,0.0,9e-08,0.0,0.0,0.0,9e-08
1560461640768318527,33421,1560461640764541760,base_link,0.00980402571558,0.000510678546155,0.653797276627,0.756606126347,1.0,0.0,0.0,0.0,1.0,0.0,0.0,0.0,1.0,0.000823181471787,-0.000280852080323,0.00737146195024,1.21846967915e-07,0.0,0.0,0.0,1.21846967915e-07,0.0,0.0,0.0,1.21846967915e-07,0.115816242993,0.14434055984,9.76406097412,9e-08,0.0,0.0,0.0,9e-08,0.0,0.0,0.0,9e-08
1560461640787431647,33422,1560461640784541760,base_link,0.00981310078817,0.000512105282832,0.653857457059,0.756553953817,1.0,0.0,0.0,0.0,1.0,0.0,0.0,0.0,1.0,0.000200100665097,-0.000596580735873,0.00823283847421,1.21846967915e-07,0.0,0.0,0.0,1.21846967915e-07,0.0,0.0,0.0,1.21846967915e-07,0.136862754822,0.134990721941,9.81423950195,9e-08,0.0,0.0,0.0,9e-08,0.0,0.0,0.0,9e-08
1560461640807513028,33423,1560461640804541760,base_link,0.00981267174643,0.000517205380774,0.653920487671,0.756499436868,1.0,0.0,0.0,0.0,1.0,0.0,0.0,0.0,1.0,-0.00033319319482,0.000680700060911,0.0081326495856,1.21846967915e-07,0.0,0.0,0.0,1.21846967915e-07,0.0,0.0,0.0,1.21846967915e-07,0.1248793751,0.140525385737,9.77149486542,9e-08,0.0,0.0,0.0,9e-08,0.0,0.0,0.0,9e-08
1560461640828218458,33424,1560461640824541760,base_link,0.00980266022354,0.000517122074893,0.653983908141,0.756444867236,1.0,0.0,0.0,0.0,1.0,0.0,0.0,0.0,1.0,0.000205488831853,-0.00208360841498,0.00866799429059,1.21846967915e-07,0.0,0.0,0.0,1.21846967915e-07,0.0,0.0,0.0,1.21846967915e-07,0.112251982093,0.130765765905,9.82256793976,9e-08,0.0,0.0,0.0,9e-08,0.0,0.0,0.0,9e-08
1560461640847209697,33425,1560461640844541760,base_link,0.00980128551188,0.000524236001941,0.654044373063,0.756392578802,1.0,0.0,0.0,0.0,1.0,0.0,0.0,0.0,1.0,0.000181143012014,0.00183496053796,0.00685562519357,1.21846967915e-07,0.0,0.0,0.0,1.21846967915e-07,0.0,0.0,0.0,1.21846967915e-07,0.126663148403,0.133432745934,9.86861419678,9e-08,0.0,0.0,0.0,9e-08,0.0,0.0,0.0,9e-08
1560461640867517104,33426,1560461640864538688,base_link,0.00979334116021,0.000519486908222,0.654105327943,0.756339968998,1.0,0.0,0.0,0.0,1.0,0.0,0.0,0.0,1.0,-0.000328809255734,0.000257835024968,0.00845717545599,1.21846967915e-07,0.0,0.0,0.0,1.21846967915e-07,0.0,0.0,0.0,1.21846967915e-07,0.125583574176,0.13964933157,9.78749370575,9e-08,0.0,0.0,0.0,9e-08,0.0,0.0,0.0,9e-08
1560461640888196871,33427,1560461640884538688,base_link,0.00979168162805,0.000515358492701,0.654169359543,0.756284535356,1.0,0.0,0.0,0.0,1.0,0.0,0.0,0.0,1.0,-0.00172893807758,-0.00155795528553,0.00731163704768,1.21846967915e-07,0.0,0.0,0.0,1.21846967915e-07,0.0,0.0,0.0,1.21846967915e-07,0.142268151045,0.128251135349,9.78970432281,9e-08,0.0,0.0,0.0,9e-08,0.0,0.0,0.0,9e-08
1560461640907573765,33428,1560461640904538688,base_link,0.00979614260855,0.000519049634668,0.654228423082,0.756233479717,1.0,0.0,0.0,0.0,1.0,0.0,0.0,0.0,1.0,0.000200578346266,-0.000169294769876,0.0083438269794,1.21846967915e-07,0.0,0.0,0.0,1.21846967915e-07,0.0,0.0,0.0,1.21846967915e-07,0.126146540046,0.109674610198,9.78817176819,9e-08,0.0,0.0,0.0,9e-08,0.0,0.0,0.0,9e-08
1560461640927227503,33429,1560461640924538688,base_link,0.00978240800429,0.000522523456948,0.654284552148,0.756185105672,1.0,0.0,0.0,0.0,1.0,0.0,0.0,0.0,1.0,-0.000150286461576,0.000459238770418,0.00599739281461,1.21846967915e-07,0.0,0.0,0.0,1.21846967915e-07,0.0,0.0,0.0,1.21846967915e-07,0.137155920267,0.155959129333,9.73635387421,9e-08,0.0,0.0,0.0,9e-08,0.0,0.0,0.0,9e-08
1560461640948520705,33430,1560461640944538688,base_link,0.00977739318786,0.000523139854607,0.654339185,0.756137806371,1.0,0.0,0.0,0.0,1.0,0.0,0.0,0.0,1.0,0.000191695828107,-0.000596896337811,0.00770076271147,1.21846967915e-07,0.0,0.0,0.0,1.21846967915e-07,0.0,0.0,0.0,1.21846967915e-07,0.136504083872,0.139784216881,9.83117866516,9e-08,0.0,0.0,0.0,9e-08,0.0,0.0,0.0,9e-08
1560461640967580954,33431,1560461640964535360,base_link,0.00977673266772,0.000520724313352,0.654399091477,0.756085992089,1.0,0.0,0.0,0.0,1.0,0.0,0.0,0.0,1.0,-0.000577019352932,-0.000607302295975,0.00558431632817,1.21846967915e-07,0.0,0.0,0.0,1.21846967915e-07,0.0,0.0,0.0,1.21846967915e-07,0.106664985418,0.180053114891,9.76914787292,9e-08,0.0,0.0,0.0,9e-08,0.0,0.0,0.0,9e-08
1560461640987795761,33432,1560461640984535360,base_link,0.00977197270802,0.000522967315946,0.654450990053,0.756041174184,1.0,0.0,0.0,0.0,1.0,0.0,0.0,0.0,1.0,-0.000909649592359,0.000669590081088,0.00495054759085,1.21846967915e-07,0.0,0.0,0.0,1.21846967915e-07,0.0,0.0,0.0,1.21846967915e-07,0.111193783581,0.142754420638,9.79141139984,9e-08,0.0,0.0,0.0,9e-08,0.0,0.0,0.0,9e-08
1560461641007469060,33433,1560461641004535360,base_link,0.00978014590391,0.000525634421204,0.654508931433,0.755990819237,1.0,0.0,0.0,0.0,1.0,0.0,0.0,0.0,1.0,0.00170183670707,-0.000811040226836,0.00896489992738,1.21846967915e-07,0.0,0.0,0.0,1.21846967915e-07,0.0,0.0,0.0,1.21846967915e-07,0.102476522326,0.133972287178,9.77192306519,9e-08,0.0,0.0,0.0,9e-08,0.0,0.0,0.0,9e-08
1560461641027831654,33434,1560461641024535360,base_link,0.00978305008519,0.000530800044324,0.654566556711,0.755940948978,1.0,0.0,0.0,0.0,1.0,0.0,0.0,0.0,1.0,-0.000665033294354,0.000466046272777,0.00738328928128,1.21846967915e-07,0.0,0.0,0.0,1.21846967915e-07,0.0,0.0,0.0,1.21846967915e-07,0.103163167834,0.180054813623,9.8029050827,9e-08,0.0,0.0,0.0,9e-08,0.0,0.0,0.0,9e-08
1560461641047791449,33435,1560461641044535360,base_link,0.00977518838085,0.000532845483566,0.654626505335,0.755889176843,1.0,0.0,0.0,0.0,1.0,0.0,0.0,0.0,1.0,-0.000872173695825,0.000466644414701,0.00781777128577,1.21846967915e-07,0.0,0.0,0.0,1.21846967915e-07,0.0,0.0,0.0,1.21846967915e-07,0.131953284144,0.168461382389,9.77352428436,9e-08,0.0,0.0,0.0,9e-08,0.0,0.0,0.0,9e-08
1560461641068200029,33436,1560461641064533568,base_link,0.00978791244856,0.000531268598742,0.654682718694,0.755840212742,1.0,0.0,0.0,0.0,1.0,0.0,0.0,0.0,1.0,0.000384273647796,-0.00103582988959,0.00590160582215,1.21846967915e-07,0.0,0.0,0.0,1.21846967915e-07,0.0,0.0,0.0,1.21846967915e-07,0.135123252869,0.156894758344,9.84178066254,9e-08,0.0,0.0,0.0,9e-08,0.0,0.0,0.0,9e-08
1560461641086958180,33437,1560461641084533568,base_link,0.00977544224976,0.000529647920707,0.654737715063,0.755792802806,1.0,0.0,0.0,0.0,1.0,0.0,0.0,0.0,1.0,-0.0024783667177,0.00109832070302,0.00688967946917,1.21846967915e-07,0.0,0.0,0.0,1.21846967915e-07,0.0,0.0,0.0,1.21846967915e-07,0.127927079797,0.139916047454,9.76143836975,9e-08,0.0,0.0,0.0,9e-08,0.0,0.0,0.0,9e-08
1560461641107394159,33438,1560461641104533568,base_link,0.00978122361199,0.000523129647167,0.654793280415,0.755744571006,1.0,0.0,0.0,0.0,1.0,0.0,0.0,0.0,1.0,7.65310323914e-05,-0.002515909262,0.00707800360397,1.21846967915e-07,0.0,0.0,0.0,1.21846967915e-07,0.0,0.0,0.0,1.21846967915e-07,0.0993081927299,0.140397697687,9.82302951813,9e-08,0.0,0.0,0.0,9e-08,0.0,0.0,0.0,9e-08
1560461641127592684,33439,1560461641124533568,base_link,0.00977836256538,0.000530863923141,0.654854382808,0.755691645101,1.0,0.0,0.0,0.0,1.0,0.0,0.0,0.0,1.0,-0.000456466223113,0.00217239372432,0.00706327101216,1.21846967915e-07,0.0,0.0,0.0,1.21846967915e-07,0.0,0.0,0.0,1.21846967915e-07,0.0987116247416,0.200007259846,9.81335735321,9e-08,0.0,0.0,0.0,9e-08,0.0,0.0,0.0,9e-08
1560461641148512661,33440,1560461641144533568,base_link,0.00975530955633,0.000532561650883,0.654905069662,0.755648038918,1.0,0.0,0.0,0.0,1.0,0.0,0.0,0.0,1.0,-0.00067691935692,0.00195145048201,0.00653526932001,1.21846967915e-07,0.0,0.0,0.0,1.21846967915e-07,0.0,0.0,0.0,1.21846967915e-07,0.0657204836607,0.15803539753,9.77263355255,9e-08,0.0,0.0,0.0,9e-08,0.0,0.0,0.0,9e-08
1560461641167683123,33441,1560461641164528448,base_link,0.00977371752169,0.000527410186469,0.654960555988,0.755599717556,1.0,0.0,0.0,0.0,1.0,0.0,0.0,0.0,1.0,0.001778221922,0.000359860481694,0.00704253930598,1.21846967915e-07,0.0,0.0,0.0,1.21846967915e-07,0.0,0.0,0.0,1.21846967915e-07,0.140357166529,0.168776452541,9.83668994904,9e-08,0.0,0.0,0.0,9e-08,0.0,0.0,0.0,9e-08
1560461641187808447,33442,1560461641184528448,base_link,0.00977799509754,0.000529129316907,0.655016590223,0.755551016873,1.0,0.0,0.0,0.0,1.0,0.0,0.0,0.0,1.0,6.44110405119e-05,0.000779840745963,0.00621458003297,1.21846967915e-07,0.0,0.0,0.0,1.21846967915e-07,0.0,0.0,0.0,1.21846967915e-07,0.13252517581,0.181664437056,9.7433052063,9e-08,0.0,0.0,0.0,9e-08,0.0,0.0,0.0,9e-08
1560461641206780939,33443,1560461641204528448,base_link,0.00975798357631,0.000526990693618,0.655068488799,0.755506367555,1.0,0.0,0.0,0.0,1.0,0.0,0.0,0.0,1.0,-0.00068317662226,0.000244126305915,0.00580475013703,1.21846967915e-07,0.0,0.0,0.0,1.21846967915e-07,0.0,0.0,0.0,1.21846967915e-07,0.111134164035,0.0921012088656,9.80396366119,9e-08,0.0,0.0,0.0,9e-08,0.0,0.0,0.0,9e-08
1560461641226235353,33444,1560461641221528448,base_link,0.00976827959042,0.00052751983413,0.655116694257,0.755464484124,1.0,0.0,0.0,0.0,1.0,0.0,0.0,0.0,1.0,0.00147701613605,-0.00176724046469,0.00812298804522,1.21846967915e-07,0.0,0.0,0.0,1.21846967915e-07,0.0,0.0,0.0,1.21846967915e-07,0.142761349678,0.144286841154,9.79144573212,9e-08,0.0,0.0,0.0,9e-08,0.0,0.0,0.0,9e-08
1560461641248831348,33445,1560461641246528448,base_link,0.00976602242912,0.000522438833979,0.655191130859,0.75539982559,1.0,0.0,0.0,0.0,1.0,0.0,0.0,0.0,1.0,-0.00196477142163,0.00184206757694,0.00581211969256,1.21846967915e-07,0.0,0.0,0.0,1.21846967915e-07,0.0,0.0,0.0,1.21846967915e-07,0.123073652387,0.179071813822,9.82101821899,9e-08,0.0,0.0,0.0,9e-08,0.0,0.0,0.0,9e-08
1560461641266007056,33446,1560461641262526656,base_link,0.00975864903553,0.000535201097271,0.655236907605,0.755360286578,1.0,0.0,0.0,0.0,1.0,0.0,0.0,0.0,1.0,0.0027456835378,-0.000595287187025,0.00788851454854,1.21846967915e-07,0.0,0.0,0.0,1.21846967915e-07,0.0,0.0,0.0,1.21846967915e-07,0.0813904926181,0.120280563831,9.73292255402,9e-08,0.0,0.0,0.0,9e-08,0.0,0.0,0.0,9e-08
1560461641288582247,33447,1560461641286526656,base_link,0.00978429374649,0.000533436527262,0.655306671176,0.755299373845,1.0,0.0,0.0,0.0,1.0,0.0,0.0,0.0,1.0,0.0032733164262,-0.000384839018807,0.00766608817503,1.21846967915e-07,0.0,0.0,0.0,1.21846967915e-07,0.0,0.0,0.0,1.21846967915e-07,0.136108398438,0.16754886508,9.86976146698,9e-08,0.0,0.0,0.0,9e-08,0.0,0.0,0.0,9e-08
1560461641305214982,33448,1560461641302526656,base_link,0.00978575933729,0.000537521808117,0.65534854407,0.755263064335,1.0,0.0,0.0,0.0,1.0,0.0,0.0,0.0,1.0,-0.000360318197636,0.00237682298757,0.00653197010979,1.21846967915e-07,0.0,0.0,0.0,1.21846967915e-07,0.0,0.0,0.0,1.21846967915e-07,0.127958610654,0.141960084438,9.79351139069,9e-08,0.0,0.0,0.0,9e-08,0.0,0.0,0.0,9e-08
1560461641326145838,33449,1560461641322526656,base_link,0.00976479358506,0.000543134253686,0.655406295789,0.755213236224,1.0,0.0,0.0,0.0,1.0,0.0,0.0,0.0,1.0,0.00019268815231,0.000788709614426,0.00801757257432,1.21846967915e-07,0.0,0.0,0.0,1.21846967915e-07,0.0,0.0,0.0,1.21846967915e-07,0.101518198848,0.141925811768,9.77650356293,9e-08,0.0,0.0,0.0,9e-08,0.0,0.0,0.0,9e-08
1560461641346235578,33450,1560461641342526656,base_link,0.00978221702638,0.000536977191809,0.655462693541,0.75516408773,1.0,0.0,0.0,0.0,1.0,0.0,0.0,0.0,1.0,0.00231248908676,-0.00261874590069,0.00758824730292,1.21846967915e-07,0.0,0.0,0.0,1.21846967915e-07,0.0,0.0,0.0,1.21846967915e-07,0.138309776783,0.156238108873,9.7895116806,9e-08,0.0,0.0,0.0,9e-08,0.0,0.0,0.0,9e-08
1560461641365964063,33451,1560461641362524608,base_link,0.00977679029037,0.000539975215682,0.655518248356,0.755115866467,1.0,0.0,0.0,0.0,1.0,0.0,0.0,0.0,1.0,0.000172553307493,0.000352171366103,0.00653324555606,1.21846967915e-07,0.0,0.0,0.0,1.21846967915e-07,0.0,0.0,0.0,1.21846967915e-07,0.149489507079,0.145761013031,9.80353164673,9e-08,0.0,0.0,0.0,9e-08,0.0,0.0,0.0,9e-08
1560461641387224240,33452,1560461641382524608,base_link,0.00976742348256,0.00054294492214,0.655576490032,0.755065464104,1.0,0.0,0.0,0.0,1.0,0.0,0.0,0.0,1.0,0.000605261826422,-0.00208764197305,0.00739065883681,1.21846967915e-07,0.0,0.0,0.0,1.21846967915e-07,0.0,0.0,0.0,1.21846967915e-07,0.109944880009,0.124456271529,9.79741477966,9e-08,0.0,0.0,0.0,9e-08,0.0,0.0,0.0,9e-08
1560461641406179561,33453,1560461641402524608,base_link,0.00978597665698,0.000545629149555,0.655634763319,0.755014608663,1.0,0.0,0.0,0.0,1.0,0.0,0.0,0.0,1.0,0.000611943600234,-0.00101770169567,0.00716948928311,1.21846967915e-07,0.0,0.0,0.0,1.21846967915e-07,0.0,0.0,0.0,1.21846967915e-07,0.131802543998,0.163359880447,9.81598091125,9e-08,0.0,0.0,0.0,9e-08,0.0,0.0,0.0,9e-08
1560461641430021958,33454,1560461641426524608,base_link,0.00977452983634,0.00054305292344,0.655697235485,0.754960481573,1.0,0.0,0.0,0.0,1.0,0.0,0.0,0.0,1.0,-0.00131370127201,0.00163756567053,0.00696352031082,1.21846967915e-07,0.0,0.0,0.0,1.21846967915e-07,0.0,0.0,0.0,1.21846967915e-07,0.131582647562,0.135940775275,9.76054096222,9e-08,0.0,0.0,0.0,9e-08,0.0,0.0,0.0,9e-08
1560461641448781707,33455,1560461641446524608,base_link,0.00977137277397,0.00054503975222,0.655751610188,0.754913271835,1.0,0.0,0.0,0.0,1.0,0.0,0.0,0.0,1.0,0.0017924408894,-0.00325114000589,0.00833019148558,1.21846967915e-07,0.0,0.0,0.0,1.21846967915e-07,0.0,0.0,0.0,1.21846967915e-07,0.107603348792,0.125130176544,9.78450870514,9e-08,0.0,0.0,0.0,9e-08,0.0,0.0,0.0,9e-08
1560461641469633891,33456,1560461641466522304,base_link,0.00978875406844,0.000543919897284,0.65580960952,0.754862690348,1.0,0.0,0.0,0.0,1.0,0.0,0.0,0.0,1.0,-0.000355421041604,-0.000493051076774,0.00706911459565,1.21846967915e-07,0.0,0.0,0.0,1.21846967915e-07,0.0,0.0,0.0,1.21846967915e-07,0.144163414836,0.135268747807,9.8433675766,9e-08,0.0,0.0,0.0,9e-08,0.0,0.0,0.0,9e-08
1560461641488658227,33457,1560461641486522304,base_link,0.00976843303129,0.000553720685924,0.655867366507,0.754812772674,1.0,0.0,0.0,0.0,1.0,0.0,0.0,0.0,1.0,-0.00132110528648,0.000468276673928,0.00686316750944,1.21846967915e-07,0.0,0.0,0.0,1.21846967915e-07,0.0,0.0,0.0,1.21846967915e-07,0.118851900101,0.155765801668,9.73750495911,9e-08,0.0,0.0,0.0,9e-08,0.0,0.0,0.0,9e-08
