%time,field.header.seq,field.header.stamp,field.header.frame_id,field.orientation.x,field.orientation.y,field.orientation.z,field.orientation.w,field.orientation_covariance0,field.orientation_covariance1,field.orientation_covariance2,field.orientation_covariance3,field.orientation_covariance4,field.orientation_covariance5,field.orientation_covariance6,field.orientation_covariance7,field.orientation_covariance8,field.angular_velocity.x,field.angular_velocity.y,field.angular_velocity.z,field.angular_velocity_covariance0,field.angular_velocity_covariance1,field.angular_velocity_covariance2,field.angular_velocity_covariance3,field.angular_velocity_covariance4,field.angular_velocity_covariance5,field.angular_velocity_covariance6,field.angular_velocity_covariance7,field.angular_velocity_covariance8,field.linear_acceleration.x,field.linear_acceleration.y,field.linear_acceleration.z,field.linear_acceleration_covariance0,field.linear_acceleration_covariance1,field.linear_acceleration_covariance2,field.linear_acceleration_covariance3,field.linear_acceleration_covariance4,field.linear_acceleration_covariance5,field.linear_acceleration_covariance6,field.linear_acceleration_covariance7,field.linear_acceleration_covariance8
1560461786895223941,40724,1560461786819064768,base_link,-0.00819894003975,-0.00334613807277,-0.670105543946,-0.742213096118,1.0,0.0,0.0,0.0,1.0,0.0,0.0,0.0,1.0,-0.00125409057364,-2.86055728793e-05,0.00501675577834,1.21846967915e-07,0.0,0.0,0.0,1.21846967915e-07,0.0,0.0,0.0,1.21846967915e-07,0.0325987115502,0.189623147249,9.82985687256,9e-08,0.0,0.0,0.0,9e-08,0.0,0.0,0.0,9e-08
1560461786895360183,40725,1560461786839064768,base_link,-0.0081976245971,-0.00334051772467,-0.670129915361,-0.742191084927,1.0,0.0,0.0,0.0,1.0,0.0,0.0,0.0,1.0,-0.00126311450731,-0.000451537489425,0.00448604626581,1.21846967915e-07,0.0,0.0,0.0,1.21846967915e-07,0.0,0.0,0.0,1.21846967915e-07,0.043181873858,0.157869592309,9.84453487396,9e-08,0.0,0.0,0.0,9e-08,0.0,0.0,0.0,9e-08
1560461786895417951,40726,1560461786859064768,base_link,-0.0081947312818,-0.00334356645647,-0.670152766855,-0.742170425068,1.0,0.0,0.0,0.0,1.0,0.0,0.0,0.0,1.0,0.00107355159707,0.000717826536857,0.00413020793349,1.21846967915e-07,0.0,0.0,0.0,1.21846967915e-07,0.0,0.0,0.0,1.21846967915e-07,0.00994280725718,0.170414745808,9.78171443939,9e-08,0.0,0.0,0.0,9e-08,0.0,0.0,0.0,9e-08
1560461786895441084,40727,1560461786879060160,base_link,-0.00819014912911,-0.00334114564686,-0.670172009526,-0.742153121153,1.0,0.0,0.0,0.0,1.0,0.0,0.0,0.0,1.0,-0.000413457280956,0.000292411190458,0.00436282902956,1.21846967915e-07,0.0,0.0,0.0,1.21846967915e-07,0.0,0.0,0.0,1.21846967915e-07,0.0635083094239,0.182375505567,9.79599952698,9e-08,0.0,0.0,0.0,9e-08,0.0,0.0,0.0,9e-08
1560461786902511565,40728,1560461786899060160,base_link,-0.00819327622771,-0.00333818581857,-0.670195664445,-0.742131742164,1.0,0.0,0.0,0.0,1.0,0.0,0.0,0.0,1.0,0.000116979645099,0.000609061215073,0.00414003198966,1.21846967915e-07,0.0,0.0,0.0,1.21846967915e-07,0.0,0.0,0.0,1.21846967915e-07,0.0647960603237,0.184210196137,9.78424358368,9e-08,0.0,0.0,0.0,9e-08,0.0,0.0,0.0,9e-08
1560461786922456322,40729,1560461786919060160,base_link,-0.00818434158973,-0.00332812539875,-0.670215270632,-0.742114243319,1.0,0.0,0.0,0.0,1.0,0.0,0.0,0.0,1.0,-0.00161089340691,0.000175257911906,0.00267603294924,1.21846967915e-07,0.0,0.0,0.0,1.21846967915e-07,0.0,0.0,0.0,1.21846967915e-07,0.0356320142746,0.174068361521,9.74070072174,9e-08,0.0,0.0,0.0,9e-08,0.0,0.0,0.0,9e-08
1560461786942447262,40730,1560461786939060160,base_link,-0.00818715209306,-0.00332745121381,-0.670241190944,-0.742090767525,1.0,0.0,0.0,0.0,1.0,0.0,0.0,0.0,1.0,0.00109546305612,-0.000127036357298,0.00572698144242,1.21846967915e-07,0.0,0.0,0.0,1.21846967915e-07,0.0,0.0,0.0,1.21846967915e-07,0.072892062366,0.161921352148,9.7829580307,9e-08,0.0,0.0,0.0,9e-08,0.0,0.0,0.0,9e-08
1560461786963234713,40731,1560461786959056832,base_link,-0.00818971778246,-0.00332714433207,-0.670270509345,-0.742064315109,1.0,0.0,0.0,0.0,1.0,0.0,0.0,0.0,1.0,-0.00157854554709,-0.000557665596716,0.00480624288321,1.21846967915e-07,0.0,0.0,0.0,1.21846967915e-07,0.0,0.0,0.0,1.21846967915e-07,0.0799533873796,0.149592161179,9.81884479523,9e-08,0.0,0.0,0.0,9e-08,0.0,0.0,0.0,9e-08
1560461786982811593,40732,1560461786979056832,base_link,-0.00817757734982,-0.00332389984792,-0.670294646318,-0.742042538359,1.0,0.0,0.0,0.0,1.0,0.0,0.0,0.0,1.0,-0.000943114806432,0.00103319855407,0.00456673745066,1.21846967915e-07,0.0,0.0,0.0,1.21846967915e-07,0.0,0.0,0.0,1.21846967915e-07,0.0494942441583,0.178038030863,9.78802585602,9e-08,0.0,0.0,0.0,9e-08,0.0,0.0,0.0,9e-08
1560461787002985516,40733,1560461786999056832,base_link,-0.00817466016229,-0.00332099023365,-0.670322107624,-0.742017858745,1.0,0.0,0.0,0.0,1.0,0.0,0.0,0.0,1.0,-0.0021200645715,0.00114877044689,0.00521356472746,1.21846967915e-07,0.0,0.0,0.0,1.21846967915e-07,0.0,0.0,0.0,1.21846967915e-07,0.0444587618113,0.166642278433,9.81985092163,9e-08,0.0,0.0,0.0,9e-08,0.0,0.0,0.0,9e-08
1560461787023766827,40734,1560461787019056832,base_link,-0.00816885970226,-0.00332094150135,-0.670343602517,-0.741998555488,1.0,0.0,0.0,0.0,1.0,0.0,0.0,0.0,1.0,-0.000525346433278,0.00178130669519,0.00489869620651,1.21846967915e-07,0.0,0.0,0.0,1.21846967915e-07,0.0,0.0,0.0,1.21846967915e-07,0.0780115276575,0.166595503688,9.82516384125,9e-08,0.0,0.0,0.0,9e-08,0.0,0.0,0.0,9e-08
1560461787042204375,40735,1560461787039056832,base_link,-0.00817047840466,-0.00332121677296,-0.670367375974,-0.741976973668,1.0,0.0,0.0,0.0,1.0,0.0,0.0,0.0,1.0,0.000333903823048,0.000611733295955,0.00466168019921,1.21846967915e-07,0.0,0.0,0.0,1.21846967915e-07,0.0,0.0,0.0,1.21846967915e-07,0.0847926810384,0.163406014442,9.82113742828,9e-08,0.0,0.0,0.0,9e-08,0.0,0.0,0.0,9e-08
1560461787062790484,40736,1560461787059054528,base_link,-0.00817073836511,-0.00331718730375,-0.670387551143,-0.741958737253,1.0,0.0,0.0,0.0,1.0,0.0,0.0,0.0,1.0,0.000877045909874,-2.93302582577e-05,0.00562784634531,1.21846967915e-07,0.0,0.0,0.0,1.21846967915e-07,0.0,0.0,0.0,1.21846967915e-07,0.056147955358,0.186229258776,9.79188537598,9e-08,0.0,0.0,0.0,9e-08,0.0,0.0,0.0,9e-08
1560461787083115002,40737,1560461787079054528,base_link,-0.00816697494788,-0.0033146642551,-0.670417298916,-0.74193193976,1.0,0.0,0.0,0.0,1.0,0.0,0.0,0.0,1.0,-0.0007104150136,-0.000552594894543,0.00595663441345,1.21846967915e-07,0.0,0.0,0.0,1.21846967915e-07,0.0,0.0,0.0,1.21846967915e-07,0.0661628097296,0.190541863441,9.81854820251,9e-08,0.0,0.0,0.0,9e-08,0.0,0.0,0.0,9e-08
1560461787102469317,40738,1560461787099054528,base_link,-0.00816870461503,-0.00331166623123,-0.670442436877,-0.741909246316,1.0,0.0,0.0,0.0,1.0,0.0,0.0,0.0,1.0,0.00098275532946,0.000721299787983,0.00528383348137,1.21846967915e-07,0.0,0.0,0.0,1.21846967915e-07,0.0,0.0,0.0,1.21846967915e-07,0.062792763114,0.168173149228,9.81452560425,9e-08,0.0,0.0,0.0,9e-08,0.0,0.0,0.0,9e-08
1560461787124371159,40739,1560461787119054528,base_link,-0.00816792242879,-0.00331240231935,-0.67046758274,-0.74188654497,1.0,0.0,0.0,0.0,1.0,0.0,0.0,0.0,1.0,0.00151526345871,0.000191645696759,0.00538923870772,1.21846967915e-07,0.0,0.0,0.0,1.21846967915e-07,0.0,0.0,0.0,1.21846967915e-07,0.0702779963613,0.164270296693,9.80257797241,9e-08,0.0,0.0,0.0,9e-08,0.0,0.0,0.0,9e-08
1560461787143725246,40740,1560461787139054528,base_link,-0.00815385855228,-0.00331775365203,-0.670494482966,-0.741862257849,1.0,0.0,0.0,0.0,1.0,0.0,0.0,0.0,1.0,-0.000923937885091,0.0020017628558,0.00604989659041,1.21846967915e-07,0.0,0.0,0.0,1.21846967915e-07,0.0,0.0,0.0,1.21846967915e-07,0.0703252404928,0.158014446497,9.77242851257,9e-08,0.0,0.0,0.0,9e-08,0.0,0.0,0.0,9e-08
1560461787162768429,40741,1560461787159051712,base_link,-0.00815977820886,-0.00331859724754,-0.670515242923,-0.741843436647,1.0,0.0,0.0,0.0,1.0,0.0,0.0,0.0,1.0,0.00213954038918,-0.0031148889102,0.00432725949213,1.21846967915e-07,0.0,0.0,0.0,1.21846967915e-07,0.0,0.0,0.0,1.21846967915e-07,0.0607283338904,0.119439147413,9.84704399109,9e-08,0.0,0.0,0.0,9e-08,0.0,0.0,0.0,9e-08
1560461787182292854,40742,1560461787179051712,base_link,-0.00815616296415,-0.00332281571902,-0.670541294944,-0.741819913437,1.0,0.0,0.0,0.0,1.0,0.0,0.0,0.0,1.0,-0.00115857867058,0.00199979660101,0.00477674882859,1.21846967915e-07,0.0,0.0,0.0,1.21846967915e-07,0.0,0.0,0.0,1.21846967915e-07,0.0237086564302,0.19452098012,9.73609256744,9e-08,0.0,0.0,0.0,9e-08,0.0,0.0,0.0,9e-08
1560461787203323947,40743,1560461787199051712,base_link,-0.00816580619601,-0.00330838091732,-0.670558822765,-0.74180407149,1.0,0.0,0.0,0.0,1.0,0.0,0.0,0.0,1.0,-0.000315189565299,-0.000989331398159,0.00382234482095,1.21846967915e-07,0.0,0.0,0.0,1.21846967915e-07,0.0,0.0,0.0,1.21846967915e-07,0.100136272609,0.128317862749,9.82705211639,9e-08,0.0,0.0,0.0,9e-08,0.0,0.0,0.0,9e-08
1560461787222344854,40744,1560461787219051712,base_link,-0.00815003553677,-0.00330929481246,-0.670589458255,-0.741776554866,1.0,0.0,0.0,0.0,1.0,0.0,0.0,0.0,1.0,0.000673280272167,0.000722808414139,0.00582188926637,1.21846967915e-07,0.0,0.0,0.0,1.21846967915e-07,0.0,0.0,0.0,1.21846967915e-07,0.0711338371038,0.20434987545,9.72654056549,9e-08,0.0,0.0,0.0,9e-08,0.0,0.0,0.0,9e-08
1560461787242985234,40745,1560461787239051712,base_link,-0.00815061094004,-0.00330750637021,-0.670612438824,-0.741755850227,1.0,0.0,0.0,0.0,1.0,0.0,0.0,0.0,1.0,3.2344894862e-05,0.000288993585855,0.00595505954698,1.21846967915e-07,0.0,0.0,0.0,1.21846967915e-07,0.0,0.0,0.0,1.21846967915e-07,0.0860978215933,0.133157104254,9.85025787354,9e-08,0.0,0.0,0.0,9e-08,0.0,0.0,0.0,9e-08
1560461787264414486,40746,1560461787260047360,base_link,-0.00814886793736,-0.00330837482578,-0.670635840862,-0.741734724119,1.0,0.0,0.0,0.0,1.0,0.0,0.0,0.0,1.0,-0.000313078489853,-0.00156135100406,0.00522294640541,1.21846967915e-07,0.0,0.0,0.0,1.21846967915e-07,0.0,0.0,0.0,1.21846967915e-07,0.0735234767199,0.156907096505,9.75294303894,9e-08,0.0,0.0,0.0,9e-08,0.0,0.0,0.0,9e-08
1560461787283651372,40747,1560461787281047360,base_link,-0.00814689707828,-0.003305435577,-0.67065592647,-0.741716492973,1.0,0.0,0.0,0.0,1.0,0.0,0.0,0.0,1.0,-0.000202651164727,0.000182379037142,0.00466317404062,1.21846967915e-07,0.0,0.0,0.0,1.21846967915e-07,0.0,0.0,0.0,1.21846967915e-07,0.084072522819,0.137380614877,9.79667854309,9e-08,0.0,0.0,0.0,9e-08,0.0,0.0,0.0,9e-08
1560461787304510387,40748,1560461787301047360,base_link,-0.00814557142819,-0.00330693903412,-0.670680787842,-0.741694160412,1.0,0.0,0.0,0.0,1.0,0.0,0.0,0.0,1.0,0.000662102829665,-0.000237277941778,0.00550037482753,1.21846967915e-07,0.0,0.0,0.0,1.21846967915e-07,0.0,0.0,0.0,1.21846967915e-07,0.0585519969463,0.142376199365,9.77964687347,9e-08,0.0,0.0,0.0,9e-08,0.0,0.0,0.0,9e-08
1560461787323832835,40749,1560461787321047360,base_link,-0.0081426608261,-0.00329980419828,-0.670704945889,-0.741672278295,1.0,0.0,0.0,0.0,1.0,0.0,0.0,0.0,1.0,-0.00158240506425,0.00102952192537,0.00424752384424,1.21846967915e-07,0.0,0.0,0.0,1.21846967915e-07,0.0,0.0,0.0,1.21846967915e-07,0.0695101246238,0.157599240541,9.78762149811,9e-08,0.0,0.0,0.0,9e-08,0.0,0.0,0.0,9e-08
1560461787344845836,40750,1560461787341047360,base_link,-0.00814809497074,-0.00330493574172,-0.670726954446,-0.741652292786,1.0,0.0,0.0,0.0,1.0,0.0,0.0,0.0,1.0,0.00119135365821,-0.000550387252588,0.00549347605556,1.21846967915e-07,0.0,0.0,0.0,1.21846967915e-07,0.0,0.0,0.0,1.21846967915e-07,0.043767593801,0.138950124383,9.77073192596,9e-08,0.0,0.0,0.0,9e-08,0.0,0.0,0.0,9e-08
1560461787363605560,40751,1560461787361045312,base_link,-0.00814697560972,-0.00329864911121,-0.670751649865,-0.741630041884,1.0,0.0,0.0,0.0,1.0,0.0,0.0,0.0,1.0,0.000656907679513,-0.00172859989107,0.00519795389846,1.21846967915e-07,0.0,0.0,0.0,1.21846967915e-07,0.0,0.0,0.0,1.21846967915e-07,0.0326804295182,0.163272112608,9.76672267914,9e-08,0.0,0.0,0.0,9e-08,0.0,0.0,0.0,9e-08
1560461787385054823,40752,1560461787381045312,base_link,-0.00815244465722,-0.00330636412476,-0.670776403236,-0.741607564443,1.0,0.0,0.0,0.0,1.0,0.0,0.0,0.0,1.0,0.000660700083245,0.0010351149831,0.00474882218987,1.21846967915e-07,0.0,0.0,0.0,1.21846967915e-07,0.0,0.0,0.0,1.21846967915e-07,0.06783490628,0.165127247572,9.83355140686,9e-08,0.0,0.0,0.0,9e-08,0.0,0.0,0.0,9e-08
1560461787403163309,40753,1560461787401045312,base_link,-0.00815259217119,-0.00330756004159,-0.670799354829,-0.741586720192,1.0,0.0,0.0,0.0,1.0,0.0,0.0,0.0,1.0,0.00139071431477,-0.000564221874811,0.00410735001788,1.21846967915e-07,0.0,0.0,0.0,1.21846967915e-07,0.0,0.0,0.0,1.21846967915e-07,0.0462346971035,0.189046502113,9.78172206879,9e-08,0.0,0.0,0.0,9e-08,0.0,0.0,0.0,9e-08
1560461787424404477,40754,1560461787421045312,base_link,-0.00815099075558,-0.0033149764052,-0.670817391046,-0.741570454143,1.0,0.0,0.0,0.0,1.0,0.0,0.0,0.0,1.0,0.000127786319354,8.38020350784e-05,0.00518331443891,1.21846967915e-07,0.0,0.0,0.0,1.21846967915e-07,0.0,0.0,0.0,1.21846967915e-07,0.0625406727195,0.176191061735,9.78858089447,9e-08,0.0,0.0,0.0,9e-08,0.0,0.0,0.0,9e-08
1560461787443763780,40755,1560461787441045312,base_link,-0.00814514683162,-0.00331864318102,-0.6708413647,-0.741548756419,1.0,0.0,0.0,0.0,1.0,0.0,0.0,0.0,1.0,-0.00061867054319,-2.8881826438e-05,0.00532493786886,1.21846967915e-07,0.0,0.0,0.0,1.21846967915e-07,0.0,0.0,0.0,1.21846967915e-07,0.0616518221796,0.168971717358,9.84843063354,9e-08,0.0,0.0,0.0,9e-08,0.0,0.0,0.0,9e-08
1560461787464766953,40756,1560461787461043264,base_link,-0.00814329796791,-0.00332043804408,-0.670866262951,-0.741526218391,1.0,0.0,0.0,0.0,1.0,0.0,0.0,0.0,1.0,-0.000305895839119,0.00145744415931,0.00477206520736,1.21846967915e-07,0.0,0.0,0.0,1.21846967915e-07,0.0,0.0,0.0,1.21846967915e-07,0.0616964437068,0.174242377281,9.82210731506,9e-08,0.0,0.0,0.0,9e-08,0.0,0.0,0.0,9e-08
1560461787484799922,40757,1560461787481043264,base_link,-0.00814261176453,-0.00332765569188,-0.670892934004,-0.74150207615,1.0,0.0,0.0,0.0,1.0,0.0,0.0,0.0,1.0,0.000117440016766,0.000181913608685,0.00444821408018,1.21846967915e-07,0.0,0.0,0.0,1.21846967915e-07,0.0,0.0,0.0,1.21846967915e-07,0.0584085136652,0.170337617397,9.78729820251,9e-08,0.0,0.0,0.0,9e-08,0.0,0.0,0.0,9e-08
1560461787503666900,40758,1560461787501043264,base_link,-0.00814326948586,-0.00332285967687,-0.670917895475,-0.741479474902,1.0,0.0,0.0,0.0,1.0,0.0,0.0,0.0,1.0,-0.000115383852972,-3.85113526136e-05,0.00370963220485,1.21846967915e-07,0.0,0.0,0.0,1.21846967915e-07,0.0,0.0,0.0,1.21846967915e-07,0.0503645837307,0.159584283829,9.82486629486,9e-08,0.0,0.0,0.0,9e-08,0.0,0.0,0.0,9e-08
1560461787523930133,40759,1560461787521043264,base_link,-0.00814256039806,-0.00333066128902,-0.670940588919,-0.741458888801,1.0,0.0,0.0,0.0,1.0,0.0,0.0,0.0,1.0,0.00109662208706,0.00125292036682,0.00581746920943,1.21846967915e-07,0.0,0.0,0.0,1.21846967915e-07,0.0,0.0,0.0,1.21846967915e-07,0.0371221229434,0.178360700607,9.79201030731,9e-08,0.0,0.0,0.0,9e-08,0.0,0.0,0.0,9e-08
1560461787543769520,40760,1560461787541043264,base_link,-0.00813872898611,-0.00332587498753,-0.670969301459,-0.741433042246,1.0,0.0,0.0,0.0,1.0,0.0,0.0,0.0,1.0,-0.00221360428259,-2.23279930651e-05,0.00480000395328,1.21846967915e-07,0.0,0.0,0.0,1.21846967915e-07,0.0,0.0,0.0,1.21846967915e-07,0.0653875023127,0.174905493855,9.85073375702,9e-08,0.0,0.0,0.0,9e-08,0.0,0.0,0.0,9e-08
1560461787563244927,40761,1560461787561041216,base_link,-0.00813756879533,-0.00331607963189,-0.670992126612,-0.741412577317,1.0,0.0,0.0,0.0,1.0,0.0,0.0,0.0,1.0,0.00011716777226,0.000496276654303,0.0044428310357,1.21846967915e-07,0.0,0.0,0.0,1.21846967915e-07,0.0,0.0,0.0,1.21846967915e-07,0.0795580744743,0.175402671099,9.76826763153,9e-08,0.0,0.0,0.0,9e-08,0.0,0.0,0.0,9e-08
1560461787583875498,40762,1560461787581041216,base_link,-0.00813527788362,-0.0033081657379,-0.671013934972,-0.741392792006,1.0,0.0,0.0,0.0,1.0,0.0,0.0,0.0,1.0,0.000982604804449,-0.00077502115164,0.00550327915698,1.21846967915e-07,0.0,0.0,0.0,1.21846967915e-07,0.0,0.0,0.0,1.21846967915e-07,0.110921539366,0.162922084332,9.83072090149,9e-08,0.0,0.0,0.0,9e-08,0.0,0.0,0.0,9e-08
1560461787602835083,40763,1560461787601041216,base_link,-0.00813817284528,-0.0033123738373,-0.671039634013,-0.741369537482,1.0,0.0,0.0,0.0,1.0,0.0,0.0,0.0,1.0,2.89747549687e-06,-0.000464501325041,0.00370403472334,1.21846967915e-07,0.0,0.0,0.0,1.21846967915e-07,0.0,0.0,0.0,1.21846967915e-07,0.0481581762433,0.150901257992,9.80430793762,9e-08,0.0,0.0,0.0,9e-08,0.0,0.0,0.0,9e-08
1560461787625068037,40764,1560461787622041216,base_link,-0.0081361842055,-0.00330952085786,-0.671061218467,-0.74135006037,1.0,0.0,0.0,0.0,1.0,0.0,0.0,0.0,1.0,-0.000938703364227,0.00124021270312,0.00509178917855,1.21846967915e-07,0.0,0.0,0.0,1.21846967915e-07,0.0,0.0,0.0,1.21846967915e-07,0.0458672195673,0.152275383472,9.80371379852,9e-08,0.0,0.0,0.0,9e-08,0.0,0.0,0.0,9e-08
1560461787643491291,40765,1560461787638041216,base_link,-0.0081290846018,-0.00330731917893,-0.671086129889,-0.741327509172,1.0,0.0,0.0,0.0,1.0,0.0,0.0,0.0,1.0,-0.00166950991843,-0.00045959308045,0.00627775490284,1.21846967915e-07,0.0,0.0,0.0,1.21846967915e-07,0.0,0.0,0.0,1.21846967915e-07,0.0762862637639,0.167431697249,9.77141094208,9e-08,0.0,0.0,0.0,9e-08,0.0,0.0,0.0,9e-08
1560461787662858853,40766,1560461787659039168,base_link,-0.00811804558484,-0.00329200456176,-0.671109950761,-0.741306132817,1.0,0.0,0.0,0.0,1.0,0.0,0.0,0.0,1.0,-0.000614260730799,0.00135411543306,0.00507419696078,1.21846967915e-07,0.0,0.0,0.0,1.21846967915e-07,0.0,0.0,0.0,1.21846967915e-07,0.0598025247455,0.166392058134,9.81832504272,9e-08,0.0,0.0,0.0,9e-08,0.0,0.0,0.0,9e-08
1560461787685957167,40767,1560461787683039168,base_link,-0.00812361555429,-0.00329137499321,-0.671140667911,-0.741278281652,1.0,0.0,0.0,0.0,1.0,0.0,0.0,0.0,1.0,0.000645939493552,0.00049550854601,0.00421855505556,1.21846967915e-07,0.0,0.0,0.0,1.21846967915e-07,0.0,0.0,0.0,1.21846967915e-07,0.0735729411244,0.144121259451,9.78153038025,9e-08,0.0,0.0,0.0,9e-08,0.0,0.0,0.0,9e-08
1560461787701927337,40768,1560461787699039168,base_link,-0.00812476191564,-0.00329319076506,-0.671156054145,-0.741264328411,1.0,0.0,0.0,0.0,1.0,0.0,0.0,0.0,1.0,-0.000107118466985,-0.000146203208715,0.00359036773443,1.21846967915e-07,0.0,0.0,0.0,1.21846967915e-07,0.0,0.0,0.0,1.21846967915e-07,0.0646278783679,0.15049842,9.82657909393,9e-08,0.0,0.0,0.0,9e-08,0.0,0.0,0.0,9e-08
1560461787725535782,40769,1560461787723039168,base_link,-0.00811963728692,-0.00329461832492,-0.67118649734,-0.741236835495,1.0,0.0,0.0,0.0,1.0,0.0,0.0,0.0,1.0,0.002703206148,0.00092415639665,0.00632211752236,1.21846967915e-07,0.0,0.0,0.0,1.21846967915e-07,0.0,0.0,0.0,1.21846967915e-07,0.0355135090649,0.180226355791,9.81025695801,9e-08,0.0,0.0,0.0,9e-08,0.0,0.0,0.0,9e-08
1560461787745163385,40770,1560461787743039168,base_link,-0.00812898878357,-0.0032881762779,-0.671210528947,-0.741214995525,1.0,0.0,0.0,0.0,1.0,0.0,0.0,0.0,1.0,0.000231502839597,-0.000357839395292,0.00475745555013,1.21846967915e-07,0.0,0.0,0.0,1.21846967915e-07,0.0,0.0,0.0,1.21846967915e-07,0.0380561985075,0.169964909554,9.79929256439,9e-08,0.0,0.0,0.0,9e-08,0.0,0.0,0.0,9e-08
1560461787763147435,40771,1560461787759036864,base_link,-0.00812683698939,-0.00328765306429,-0.671225543761,-0.741201413703,1.0,0.0,0.0,0.0,1.0,0.0,0.0,0.0,1.0,0.000542384164874,0.000918576028198,0.00410890532658,1.21846967915e-07,0.0,0.0,0.0,1.21846967915e-07,0.0,0.0,0.0,1.21846967915e-07,0.0885309055448,0.177433505654,9.79713630676,9e-08,0.0,0.0,0.0,9e-08,0.0,0.0,0.0,9e-08
1560461787784074888,40772,1560461787779036864,base_link,-0.008127996357,-0.00328447986758,-0.671248023837,-0.741180956677,1.0,0.0,0.0,0.0,1.0,0.0,0.0,0.0,1.0,-0.000421530305175,-0.00131296564359,0.00444511463866,1.21846967915e-07,0.0,0.0,0.0,1.21846967915e-07,0.0,0.0,0.0,1.21846967915e-07,0.0565927997231,0.157200679183,9.76448917389,9e-08,0.0,0.0,0.0,9e-08,0.0,0.0,0.0,9e-08
1560461787802103831,40773,1560461787799036864,base_link,-0.00813640975699,-0.00327926172553,-0.671265683366,-0.741164898727,1.0,0.0,0.0,0.0,1.0,0.0,0.0,0.0,1.0,-0.000518131826539,-0.0020547893364,0.00497673917562,1.21846967915e-07,0.0,0.0,0.0,1.21846967915e-07,0.0,0.0,0.0,1.21846967915e-07,0.0722468644381,0.129340454936,9.79423141479,9e-08,0.0,0.0,0.0,9e-08,0.0,0.0,0.0,9e-08
1560461787823952531,40774,1560461787819036864,base_link,-0.00813489033018,-0.00327472517705,-0.671292633642,-0.74114064585,1.0,0.0,0.0,0.0,1.0,0.0,0.0,0.0,1.0,-0.000816599931568,-0.000248074764386,0.00627584848553,1.21846967915e-07,0.0,0.0,0.0,1.21846967915e-07,0.0,0.0,0.0,1.21846967915e-07,0.0550438016653,0.163083821535,9.80721092224,9e-08,0.0,0.0,0.0,9e-08,0.0,0.0,0.0,9e-08
1560461787843512026,40775,1560461787839036864,base_link,-0.00814256303224,-0.00327650917413,-0.671315911873,-0.741119306374,1.0,0.0,0.0,0.0,1.0,0.0,0.0,0.0,1.0,0.00139541411772,-0.00110349385068,0.00464968755841,1.21846967915e-07,0.0,0.0,0.0,1.21846967915e-07,0.0,0.0,0.0,1.21846967915e-07,0.0699892565608,0.123681567609,9.81768608093,9e-08,0.0,0.0,0.0,9e-08,0.0,0.0,0.0,9e-08
1560461787863676453,40776,1560461787860034816,base_link,-0.00815087468711,-0.00326462557384,-0.671340515096,-0.741097147668,1.0,0.0,0.0,0.0,1.0,0.0,0.0,0.0,1.0,0.000559699372388,-0.00120226480067,0.00541006494313,1.21846967915e-07,0.0,0.0,0.0,1.21846967915e-07,0.0,0.0,0.0,1.21846967915e-07,0.0760154575109,0.150836780667,9.73370265961,9e-08,0.0,0.0,0.0,9e-08,0.0,0.0,0.0,9e-08
1560461787884401514,40777,1560461787880034816,base_link,-0.00814929187539,-0.00326913890863,-0.671356080454,-0.741083015303,1.0,0.0,0.0,0.0,1.0,0.0,0.0,0.0,1.0,0.000430449901614,0.00102138181683,0.00369104091078,1.21846967915e-07,0.0,0.0,0.0,1.21846967915e-07,0.0,0.0,0.0,1.21846967915e-07,0.0719822198153,0.13350404799,9.79466819763,9e-08,0.0,0.0,0.0,9e-08,0.0,0.0,0.0,9e-08
1560461787904533600,40778,1560461787900034816,base_link,-0.00815578002052,-0.00327219439051,-0.67137674558,-0.741064204638,1.0,0.0,0.0,0.0,1.0,0.0,0.0,0.0,1.0,-0.000318171951221,-0.00110544159543,0.00402813451365,1.21846967915e-07,0.0,0.0,0.0,1.21846967915e-07,0.0,0.0,0.0,1.21846967915e-07,0.0542897544801,0.179985031486,9.78620910645,9e-08,0.0,0.0,0.0,9e-08,0.0,0.0,0.0,9e-08
1560461787924386058,40779,1560461787920034816,base_link,-0.00815500985271,-0.0032718634719,-0.671397684662,-0.741045288606,1.0,0.0,0.0,0.0,1.0,0.0,0.0,0.0,1.0,-0.000436144502601,0.000591536285356,0.00295876245946,1.21846967915e-07,0.0,0.0,0.0,1.21846967915e-07,0.0,0.0,0.0,1.21846967915e-07,0.0420139618218,0.196868747473,9.82585048676,9e-08,0.0,0.0,0.0,9e-08,0.0,0.0,0.0,9e-08
1560461787943879301,40780,1560461787940034816,base_link,-0.0081494614506,-0.00327302596759,-0.671419766976,-0.741025313634,1.0,0.0,0.0,0.0,1.0,0.0,0.0,0.0,1.0,0.000327064219164,6.62133097649e-05,0.00433338526636,1.21846967915e-07,0.0,0.0,0.0,1.21846967915e-07,0.0,0.0,0.0,1.21846967915e-07,0.0648981556296,0.151101320982,9.80923461914,9e-08,0.0,0.0,0.0,9e-08,0.0,0.0,0.0,9e-08
1560461787963359579,40781,1560461787960032256,base_link,-0.00815032496708,-0.00328067216323,-0.671436883865,-0.741009798325,1.0,0.0,0.0,0.0,1.0,0.0,0.0,0.0,1.0,0.000747752725147,0.000604247907177,0.00389041937888,1.21846967915e-07,0.0,0.0,0.0,1.21846967915e-07,0.0,0.0,0.0,1.21846967915e-07,0.0719796568155,0.150107294321,9.80344676971,9e-08,0.0,0.0,0.0,9e-08,0.0,0.0,0.0,9e-08
1560461787984342605,40782,1560461787980032256,base_link,-0.00815398993191,-0.00328215833355,-0.671459087352,-0.740989533593,1.0,0.0,0.0,0.0,1.0,0.0,0.0,0.0,1.0,-0.000419159187004,0.000913321040571,0.00476010562852,1.21846967915e-07,0.0,0.0,0.0,1.21846967915e-07,0.0,0.0,0.0,1.21846967915e-07,0.0988730639219,0.157952487469,9.79026412964,9e-08,0.0,0.0,0.0,9e-08,0.0,0.0,0.0,9e-08
1560461788003016707,40783,1560461788000032256,base_link,-0.00814112575885,-0.00328795632404,-0.671480990542,-0.740969737745,1.0,0.0,0.0,0.0,1.0,0.0,0.0,0.0,1.0,0.001812464674,6.56495103613e-05,0.00398012856022,1.21846967915e-07,0.0,0.0,0.0,1.21846967915e-07,0.0,0.0,0.0,1.21846967915e-07,0.0129458978772,0.188078641891,9.80147266388,9e-08,0.0,0.0,0.0,9e-08,0.0,0.0,0.0,9e-08
1560461788024599132,40784,1560461788020032256,base_link,-0.00814646935363,-0.00329016096641,-0.671503167687,-0.740949667943,1.0,0.0,0.0,0.0,1.0,0.0,0.0,0.0,1.0,-0.00168516254053,0.00134976627305,0.00508662126958,1.21846967915e-07,0.0,0.0,0.0,1.21846967915e-07,0.0,0.0,0.0,1.21846967915e-07,0.0346515066922,0.21021130681,9.79076480865,9e-08,0.0,0.0,0.0,9e-08,0.0,0.0,0.0,9e-08
1560461788044033098,40785,1560461788040032256,base_link,-0.00814751479303,-0.00329199731777,-0.671522971437,-0.740931718654,1.0,0.0,0.0,0.0,1.0,0.0,0.0,0.0,1.0,-0.000207085438888,-0.000668719294481,0.00464204698801,1.21846967915e-07,0.0,0.0,0.0,1.21846967915e-07,0.0,0.0,0.0,1.21846967915e-07,0.0584695152938,0.172282367945,9.8673210144,9e-08,0.0,0.0,0.0,9e-08,0.0,0.0,0.0,9e-08
1560461788064399817,40786,1560461788060030208,base_link,-0.00813562608903,-0.0032979472674,-0.671538744895,-0.740917462482,1.0,0.0,0.0,0.0,1.0,0.0,0.0,0.0,1.0,0.000511606573127,0.00219748471864,0.0031337630935,1.21846967915e-07,0.0,0.0,0.0,1.21846967915e-07,0.0,0.0,0.0,1.21846967915e-07,0.0248922854662,0.150853306055,9.76818656921,9e-08,0.0,0.0,0.0,9e-08,0.0,0.0,0.0,9e-08
1560461788084615166,40787,1560461788080030208,base_link,-0.00815375252661,-0.00329747245681,-0.671558332643,-0.740899476315,1.0,0.0,0.0,0.0,1.0,0.0,0.0,0.0,1.0,0.00204193172976,0.000279065337963,0.00523671647534,1.21846967915e-07,0.0,0.0,0.0,1.21846967915e-07,0.0,0.0,0.0,1.21846967915e-07,0.079240962863,0.160687983036,9.87144565582,9e-08,0.0,0.0,0.0,9e-08,0.0,0.0,0.0,9e-08
1560461788103160858,40788,1560461788100030208,base_link,-0.00815117416023,-0.00329401855551,-0.671584231881,-0.740876105887,1.0,0.0,0.0,0.0,1.0,0.0,0.0,0.0,1.0,-0.000182961055543,0.000392130343243,0.00580294243991,1.21846967915e-07,0.0,0.0,0.0,1.21846967915e-07,0.0,0.0,0.0,1.21846967915e-07,0.0559251606464,0.197738170624,9.776263237,9e-08,0.0,0.0,0.0,9e-08,0.0,0.0,0.0,9e-08
1560461788125126182,40789,1560461788120030208,base_link,-0.0081513513087,-0.00329946142586,-0.671603316501,-0.740858791435,1.0,0.0,0.0,0.0,1.0,0.0,0.0,0.0,1.0,0.000240358043811,0.00135352753568,0.00525662768632,1.21846967915e-07,0.0,0.0,0.0,1.21846967915e-07,0.0,0.0,0.0,1.21846967915e-07,0.0328451618552,0.16655510664,9.80211734772,9e-08,0.0,0.0,0.0,9e-08,0.0,0.0,0.0,9e-08
1560461788142963691,40790,1560461788140030208,base_link,-0.00815784834418,-0.00330143063858,-0.671623971091,-0.740839991306,1.0,0.0,0.0,0.0,1.0,0.0,0.0,0.0,1.0,0.00042942885193,0.00038186123129,0.0045224968344,1.21846967915e-07,0.0,0.0,0.0,1.21846967915e-07,0.0,0.0,0.0,1.21846967915e-07,0.0834021121264,0.159656137228,9.80838298798,9e-08,0.0,0.0,0.0,9e-08,0.0,0.0,0.0,9e-08
1560461788163924988,40791,1560461788160027136,base_link,-0.00815412806162,-0.00330360202446,-0.671643079419,-0.740822653147,1.0,0.0,0.0,0.0,1.0,0.0,0.0,0.0,1.0,-0.000398202071665,0.0019881434273,0.00525473896414,1.21846967915e-07,0.0,0.0,0.0,1.21846967915e-07,0.0,0.0,0.0,1.21846967915e-07,0.0363517478108,0.145088642836,9.83833503723,9e-08,0.0,0.0,0.0,9e-08,0.0,0.0,0.0,9e-08
1560461788182423574,40792,1560461788180027136,base_link,-0.00815087106512,-0.00330337136924,-0.671663070196,-0.740804516831,1.0,0.0,0.0,0.0,1.0,0.0,0.0,0.0,1.0,0.000124209735077,-0.00109473662451,0.00473628146574,1.21846967915e-07,0.0,0.0,0.0,1.21846967915e-07,0.0,0.0,0.0,1.21846967915e-07,0.0512162521482,0.145766079426,9.82110595703,9e-08,0.0,0.0,0.0,9e-08,0.0,0.0,0.0,9e-08
1560461788203734553,40793,1560461788200027136,base_link,-0.00816176569618,-0.00330157650619,-0.671686917409,-0.740782861253,1.0,0.0,0.0,0.0,1.0,0.0,0.0,0.0,1.0,0.000217508437345,0.000810702913441,0.00387315568514,1.21846967915e-07,0.0,0.0,0.0,1.21846967915e-07,0.0,0.0,0.0,1.21846967915e-07,0.0821342244744,0.167930334806,9.77001953125,9e-08,0.0,0.0,0.0,9e-08,0.0,0.0,0.0,9e-08
1560461788223888355,40794,1560461788220027136,base_link,-0.00815361242127,-0.00329693821258,-0.671706381351,-0.740765336067,1.0,0.0,0.0,0.0,1.0,0.0,0.0,0.0,1.0,-0.000512500933837,0.000397290452383,0.00515552936122,1.21846967915e-07,0.0,0.0,0.0,1.21846967915e-07,0.0,0.0,0.0,1.21846967915e-07,0.0556684918702,0.164432376623,9.83823490143,9e-08,0.0,0.0,0.0,9e-08,0.0,0.0,0.0,9e-08
1560461788243655355,40795,1560461788240027136,base_link,-0.00815525532518,-0.00329073027814,-0.671726704034,-0.740746867845,1.0,0.0,0.0,0.0,1.0,0.0,0.0,0.0,1.0,0.00214128918014,-0.00164282799233,0.00449116807431,1.21846967915e-07,0.0,0.0,0.0,1.21846967915e-07,0.0,0.0,0.0,1.21846967915e-07,0.0875010862947,0.177397966385,9.78904533386,9e-08,0.0,0.0,0.0,9e-08,0.0,0.0,0.0,9e-08
1560461788264643708,40796,1560461788260023552,base_link,-0.00814992868793,-0.00329034996869,-0.671748349075,-0.74072741444,1.0,0.0,0.0,0.0,1.0,0.0,0.0,0.0,1.0,-9.47570006247e-05,0.00156018976122,0.00461009610444,1.21846967915e-07,0.0,0.0,0.0,1.21846967915e-07,0.0,0.0,0.0,1.21846967915e-07,0.118358597159,0.160670742393,9.78039360046,9e-08,0.0,0.0,0.0,9e-08,0.0,0.0,0.0,9e-08
1560461788283735354,40797,1560461788280023552,base_link,-0.00814844284688,-0.00329371529576,-0.671771411304,-0.740706459554,1.0,0.0,0.0,0.0,1.0,0.0,0.0,0.0,1.0,0.000244873081101,-0.0001360187307,0.00609297398478,1.21846967915e-07,0.0,0.0,0.0,1.21846967915e-07,0.0,0.0,0.0,1.21846967915e-07,0.0814851373434,0.135605096817,9.8272895813,9e-08,0.0,0.0,0.0,9e-08,0.0,0.0,0.0,9e-08
1560461788304706774,40798,1560461788300023552,base_link,-0.00814780521116,-0.00329304506209,-0.671786183774,-0.740693035782,1.0,0.0,0.0,0.0,1.0,0.0,0.0,0.0,1.0,-1.42935095937e-06,0.000599679304287,0.00398460309952,1.21846967915e-07,0.0,0.0,0.0,1.21846967915e-07,0.0,0.0,0.0,1.21846967915e-07,0.0813773050904,0.151896625757,9.7932138443,9e-08,0.0,0.0,0.0,9e-08,0.0,0.0,0.0,9e-08
1560461788323839910,40799,1560461788321023552,base_link,-0.00814247972636,-0.00328741236627,-0.671809404054,-0.740672091433,1.0,0.0,0.0,0.0,1.0,0.0,0.0,0.0,1.0,0.00109234685078,-0.000350520771462,0.00588265201077,1.21846967915e-07,0.0,0.0,0.0,1.21846967915e-07,0.0,0.0,0.0,1.21846967915e-07,0.0233962610364,0.139443457127,9.80679893494,9e-08,0.0,0.0,0.0,9e-08,0.0,0.0,0.0,9e-08
1560461788343781513,40800,1560461788341023552,base_link,-0.00814411357528,-0.00328380156674,-0.671832816628,-0.740650786201,1.0,0.0,0.0,0.0,1.0,0.0,0.0,0.0,1.0,-0.000413743691752,7.0005771704e-05,0.00462042260915,1.21846967915e-07,0.0,0.0,0.0,1.21846967915e-07,0.0,0.0,0.0,1.21846967915e-07,0.0720742568374,0.128355354071,9.77744674683,9e-08,0.0,0.0,0.0,9e-08,0.0,0.0,0.0,9e-08
1560461788364608905,40801,1560461788361021248,base_link,-0.00814474429629,-0.00328669669303,-0.671854535426,-0.740631090452,1.0,0.0,0.0,0.0,1.0,0.0,0.0,0.0,1.0,-0.000543175614439,-0.000787203200161,0.00303031434305,1.21846967915e-07,0.0,0.0,0.0,1.21846967915e-07,0.0,0.0,0.0,1.21846967915e-07,0.0721163973212,0.132850319147,9.81866645813,9e-08,0.0,0.0,0.0,9e-08,0.0,0.0,0.0,9e-08
1560461788383493212,40802,1560461788381021248,base_link,-0.00814618749658,-0.00328143393459,-0.671874652644,-0.740612911989,1.0,0.0,0.0,0.0,1.0,0.0,0.0,0.0,1.0,0.00128870550543,-0.001007884508,0.00417799456045,1.21846967915e-07,0.0,0.0,0.0,1.21846967915e-07,0.0,0.0,0.0,1.21846967915e-07,0.0613282881677,0.157460331917,9.7945098877,9e-08,0.0,0.0,0.0,9e-08,0.0,0.0,0.0,9e-08
1560461788403292691,40803,1560461788401021248,base_link,-0.00815758196293,-0.00327839903223,-0.671892396467,-0.740596685453,1.0,0.0,0.0,0.0,1.0,0.0,0.0,0.0,1.0,0.000120271302876,-0.00109878485091,0.00482641952112,1.21846967915e-07,0.0,0.0,0.0,1.21846967915e-07,0.0,0.0,0.0,1.21846967915e-07,0.095549210906,0.179156810045,9.81578922272,9e-08,0.0,0.0,0.0,9e-08,0.0,0.0,0.0,9e-08
1560461788424638921,40804,1560461788421021248,base_link,-0.00815194762075,-0.00327774164017,-0.671913169595,-0.74057785108,1.0,0.0,0.0,0.0,1.0,0.0,0.0,0.0,1.0,-0.00117972656153,-0.000255295308307,0.00367594277486,1.21846967915e-07,0.0,0.0,0.0,1.21846967915e-07,0.0,0.0,0.0,1.21846967915e-07,0.0499383285642,0.133369937539,9.78800296783,9e-08,0.0,0.0,0.0,9e-08,0.0,0.0,0.0,9e-08
1560461788443605628,40805,1560461788441021248,base_link,-0.0081516753126,-0.00326778016667,-0.671933829453,-0.74055921427,1.0,0.0,0.0,0.0,1.0,0.0,0.0,0.0,1.0,-0.00104965025093,0.00017601926811,0.00483651505783,1.21846967915e-07,0.0,0.0,0.0,1.21846967915e-07,0.0,0.0,0.0,1.21846967915e-07,0.0649590790272,0.162583947182,9.77913475037,9e-08,0.0,0.0,0.0,9e-08,0.0,0.0,0.0,9e-08
1560461788463988008,40806,1560461788461019200,base_link,-0.00815357488423,-0.0032670251454,-0.671953037879,-0.740541691718,1.0,0.0,0.0,0.0,1.0,0.0,0.0,0.0,1.0,-0.00147441169247,-0.000357380951755,0.00526500027627,1.21846967915e-07,0.0,0.0,0.0,1.21846967915e-07,0.0,0.0,0.0,1.21846967915e-07,0.0614907965064,0.162120759487,9.80220413208,9e-08,0.0,0.0,0.0,9e-08,0.0,0.0,0.0,9e-08
1560461788483677183,40807,1560461788481019200,base_link,-0.00814895272496,-0.00326753798693,-0.671971803764,-0.740524696001,1.0,0.0,0.0,0.0,1.0,0.0,0.0,0.0,1.0,0.000111358938739,-0.000252979109064,0.00418622745201,1.21846967915e-07,0.0,0.0,0.0,1.21846967915e-07,0.0,0.0,0.0,1.21846967915e-07,0.0995814278722,0.158866807818,9.81314563751,9e-08,0.0,0.0,0.0,9e-08,0.0,0.0,0.0,9e-08
1560461788504547540,40808,1560461788501019200,base_link,-0.00814941090731,-0.00326265175132,-0.671987045118,-0.74051088764,1.0,0.0,0.0,0.0,1.0,0.0,0.0,0.0,1.0,0.00042025136645,-0.000894206459634,0.00332374544814,1.21846967915e-07,0.0,0.0,0.0,1.21846967915e-07,0.0,0.0,0.0,1.21846967915e-07,0.0636194273829,0.173481076956,9.79306697845,9e-08,0.0,0.0,0.0,9e-08,0.0,0.0,0.0,9e-08
1560461788524239817,40809,1560461788521019200,base_link,-0.00815455562164,-0.00327639409347,-0.672002621012,-0.740496660444,1.0,0.0,0.0,0.0,1.0,0.0,0.0,0.0,1.0,0.000859127321746,0.00145176635124,0.00436773896217,1.21846967915e-07,0.0,0.0,0.0,1.21846967915e-07,0.0,0.0,0.0,1.21846967915e-07,0.0800600349903,0.149798929691,9.81077861786,9e-08,0.0,0.0,0.0,9e-08,0.0,0.0,0.0,9e-08
1560461788544246996,40810,1560461788541019200,base_link,-0.00814829171092,-0.0032786408827,-0.672017691145,-0.740483023305,1.0,0.0,0.0,0.0,1.0,0.0,0.0,0.0,1.0,-0.000837820116431,0.000496003194712,0.0048207975924,1.21846967915e-07,0.0,0.0,0.0,1.21846967915e-07,0.0,0.0,0.0,1.21846967915e-07,0.0373254045844,0.148242622614,9.78536701202,9e-08,0.0,0.0,0.0,9e-08,0.0,0.0,0.0,9e-08
1560461788563927060,40811,1560461788561017152,base_link,-0.00815786793588,-0.00327773505473,-0.672035377016,-0.740466939014,1.0,0.0,0.0,0.0,1.0,0.0,0.0,0.0,1.0,0.00183223665226,-0.00120353989769,0.00553686358035,1.21846967915e-07,0.0,0.0,0.0,1.21846967915e-07,0.0,0.0,0.0,1.21846967915e-07,0.0870253741741,0.137372776866,9.79706096649,9e-08,0.0,0.0,0.0,9e-08,0.0,0.0,0.0,9e-08
1560461788584169868,40812,1560461788581017152,base_link,-0.00815783369156,-0.00328243179416,-0.672056252877,-0.740448001908,1.0,0.0,0.0,0.0,1.0,0.0,0.0,0.0,1.0,-0.000322160165524,-0.000673994538374,0.0040710773319,1.21846967915e-07,0.0,0.0,0.0,1.21846967915e-07,0.0,0.0,0.0,1.21846967915e-07,0.0580189973116,0.173459634185,9.76754283905,9e-08,0.0,0.0,0.0,9e-08,0.0,0.0,0.0,9e-08
1560461788603690518,40813,1560461788601017152,base_link,-0.00815701577928,-0.00328293360507,-0.672075624622,-0.740430316036,1.0,0.0,0.0,0.0,1.0,0.0,0.0,0.0,1.0,-0.00124907819554,0.00145622063428,0.00609974283725,1.21846967915e-07,0.0,0.0,0.0,1.21846967915e-07,0.0,0.0,0.0,1.21846967915e-07,0.0540429539979,0.163051396608,9.79506397247,9e-08,0.0,0.0,0.0,9e-08,0.0,0.0,0.0,9e-08
1560461788624164054,40814,1560461788621017152,base_link,-0.00816317234725,-0.00327341319176,-0.672090736902,-0.740416552456,1.0,0.0,0.0,0.0,1.0,0.0,0.0,0.0,1.0,0.000210935773794,0.000493354396895,0.00490598427132,1.21846967915e-07,0.0,0.0,0.0,1.21846967915e-07,0.0,0.0,0.0,1.21846967915e-07,0.0378847718239,0.171312123537,9.81292915344,9e-08,0.0,0.0,0.0,9e-08,0.0,0.0,0.0,9e-08
1560461788643706640,40815,1560461788641017152,base_link,-0.00816578578113,-0.00327272929329,-0.672112842924,-0.740396469483,1.0,0.0,0.0,0.0,1.0,0.0,0.0,0.0,1.0,-0.000852643279359,-0.000147874467075,0.00364727107808,1.21846967915e-07,0.0,0.0,0.0,1.21846967915e-07,0.0,0.0,0.0,1.21846967915e-07,0.0770058557391,0.170374974608,9.79872226715,9e-08,0.0,0.0,0.0,9e-08,0.0,0.0,0.0,9e-08
1560461788664477818,40816,1560461788661015104,base_link,-0.00816876289622,-0.00327730436662,-0.672130017765,-0.740380811929,1.0,0.0,0.0,0.0,1.0,0.0,0.0,0.0,1.0,0.000873042969033,-0.000245481845923,0.00564776314422,1.21846967915e-07,0.0,0.0,0.0,1.21846967915e-07,0.0,0.0,0.0,1.21846967915e-07,0.0459698587656,0.178769439459,9.82511711121,9e-08,0.0,0.0,0.0,9e-08,0.0,0.0,0.0,9e-08
1560461788683705567,40817,1560461788681015104,base_link,-0.00817889345102,-0.00327307173643,-0.672149879467,-0.740362804688,1.0,0.0,0.0,0.0,1.0,0.0,0.0,0.0,1.0,0.00194900657516,-0.000458158319816,0.00626782700419,1.21846967915e-07,0.0,0.0,0.0,1.21846967915e-07,0.0,0.0,0.0,1.21846967915e-07,0.0609295964241,0.194149181247,9.83985137939,9e-08,0.0,0.0,0.0,9e-08,0.0,0.0,0.0,9e-08
1560461788703342783,40818,1560461788701015104,base_link,-0.00816690827025,-0.00327292652737,-0.672168729645,-0.740345724677,1.0,0.0,0.0,0.0,1.0,0.0,0.0,0.0,1.0,-0.00169478799216,0.00134468951728,0.00428398046643,1.21846967915e-07,0.0,0.0,0.0,1.21846967915e-07,0.0,0.0,0.0,1.21846967915e-07,0.0815071240067,0.182949960232,9.77845191956,9e-08,0.0,0.0,0.0,9e-08,0.0,0.0,0.0,9e-08
1560461788723856992,40819,1560461788721015104,base_link,-0.00815883731339,-0.00326684799692,-0.672187421772,-0.740328971305,1.0,0.0,0.0,0.0,1.0,0.0,0.0,0.0,1.0,0.00128165108617,-0.000146614736877,0.00414504576474,1.21846967915e-07,0.0,0.0,0.0,1.21846967915e-07,0.0,0.0,0.0,1.21846967915e-07,0.0553847625852,0.143002554774,9.78175640106,9e-08,0.0,0.0,0.0,9e-08,0.0,0.0,0.0,9e-08
1560461788744180621,40820,1560461788741015104,base_link,-0.00817274099895,-0.00325686923663,-0.672205676626,-0.740312233738,1.0,0.0,0.0,0.0,1.0,0.0,0.0,0.0,1.0,0.000210798709304,0.000488943769597,0.00362405343913,1.21846967915e-07,0.0,0.0,0.0,1.21846967915e-07,0.0,0.0,0.0,1.21846967915e-07,0.0971938669682,0.156907111406,9.80893421173,9e-08,0.0,0.0,0.0,9e-08,0.0,0.0,0.0,9e-08
1560461788764192220,40821,1560461788761012800,base_link,-0.00815816905535,-0.00326241253503,-0.67222447412,-0.740295374998,1.0,0.0,0.0,0.0,1.0,0.0,0.0,0.0,1.0,-0.000534594932105,0.00080837868154,0.00363098736852,1.21846967915e-07,0.0,0.0,0.0,1.21846967915e-07,0.0,0.0,0.0,1.21846967915e-07,0.0243745706975,0.150118514895,9.77838802338,9e-08,0.0,0.0,0.0,9e-08,0.0,0.0,0.0,9e-08
1560461788782635560,40822,1560461788777012800,base_link,-0.00816186842913,-0.00324910631397,-0.67223298515,-0.740287622612,1.0,0.0,0.0,0.0,1.0,0.0,0.0,0.0,1.0,0.00042473123176,-0.00238375808112,0.00373863847926,1.21846967915e-07,0.0,0.0,0.0,1.21846967915e-07,0.0,0.0,0.0,1.21846967915e-07,0.061712987721,0.142750144005,9.82747650146,9e-08,0.0,0.0,0.0,9e-08,0.0,0.0,0.0,9e-08
1560461788806920679,40823,1560461788803012800,base_link,-0.00817583500569,-0.00325021513828,-0.672261774081,-0.740261278198,1.0,0.0,0.0,0.0,1.0,0.0,0.0,0.0,1.0,0.000752122781705,0.000812888611108,0.00456831604242,1.21846967915e-07,0.0,0.0,0.0,1.21846967915e-07,0.0,0.0,0.0,1.21846967915e-07,0.0630683675408,0.185272321105,9.78544139862,9e-08,0.0,0.0,0.0,9e-08,0.0,0.0,0.0,9e-08
1560461788822484841,40824,1560461788819012800,base_link,-0.00816547511276,-0.0032491848454,-0.672270074376,-0.74025382084,1.0,0.0,0.0,0.0,1.0,0.0,0.0,0.0,1.0,-0.00183589698281,0.000592482392676,0.00216176314279,1.21846967915e-07,0.0,0.0,0.0,1.21846967915e-07,0.0,0.0,0.0,1.21846967915e-07,0.0346559025347,0.116501219571,9.79928016663,9e-08,0.0,0.0,0.0,9e-08,0.0,0.0,0.0,9e-08
1560461788842790940,40825,1560461788839012800,base_link,-0.00816837731841,-0.0032436748035,-0.672285434268,-0.740239978234,1.0,0.0,0.0,0.0,1.0,0.0,0.0,0.0,1.0,-9.09019290702e-05,-0.00109823048115,0.004805481527,1.21846967915e-07,0.0,0.0,0.0,1.21846967915e-07,0.0,0.0,0.0,1.21846967915e-07,0.0563957542181,0.14415448904,9.75722503662,9e-08,0.0,0.0,0.0,9e-08,0.0,0.0,0.0,9e-08
1560461788865306429,40826,1560461788863008704,base_link,-0.00817957537386,-0.00324621925485,-0.672303399363,-0.740223530427,1.0,0.0,0.0,0.0,1.0,0.0,0.0,0.0,1.0,0.000850425160024,0.000489856814966,0.00371467042714,1.21846967915e-07,0.0,0.0,0.0,1.21846967915e-07,0.0,0.0,0.0,1.21846967915e-07,0.126928150654,0.159368515015,9.82269763947,9e-08,0.0,0.0,0.0,9e-08,0.0,0.0,0.0,9e-08
1560461788883564491,40827,1560461788879008704,base_link,-0.00816866098646,-0.00324598316664,-0.672321511971,-0.740207187986,1.0,0.0,0.0,0.0,1.0,0.0,0.0,0.0,1.0,-0.0018987453077,0.000381925841793,0.00492846220732,1.21846967915e-07,0.0,0.0,0.0,1.21846967915e-07,0.0,0.0,0.0,1.21846967915e-07,0.0470380857587,0.157503813505,9.83661556244,9e-08,0.0,0.0,0.0,9e-08,0.0,0.0,0.0,9e-08
1560461788902783781,40828,1560461788899008704,base_link,-0.00818021959502,-0.00323924905514,-0.672341091816,-0.740189294015,1.0,0.0,0.0,0.0,1.0,0.0,0.0,0.0,1.0,0.000540828739759,-0.00206051021814,0.00468861078843,1.21846967915e-07,0.0,0.0,0.0,1.21846967915e-07,0.0,0.0,0.0,1.21846967915e-07,0.0576385483146,0.163928344846,9.77785778046,9e-08,0.0,0.0,0.0,9e-08,0.0,0.0,0.0,9e-08
1560461788923928280,40829,1560461788919008704,base_link,-0.008183332041,-0.00323981919005,-0.672355724675,-0.740175925561,1.0,0.0,0.0,0.0,1.0,0.0,0.0,0.0,1.0,-0.00180870853364,0.00124046136625,0.00405948841944,1.21846967915e-07,0.0,0.0,0.0,1.21846967915e-07,0.0,0.0,0.0,1.21846967915e-07,0.0604416839778,0.163137465715,9.72831821442,9e-08,0.0,0.0,0.0,9e-08,0.0,0.0,0.0,9e-08
1560461788945672584,40830,1560461788943008704,base_link,-0.00817254771614,-0.00323600094899,-0.672367994676,-0.740164919966,1.0,0.0,0.0,0.0,1.0,0.0,0.0,0.0,1.0,-0.000217532578972,0.000705148326233,0.0044616535306,1.21846967915e-07,0.0,0.0,0.0,1.21846967915e-07,0.0,0.0,0.0,1.21846967915e-07,0.0596048757434,0.121681086719,9.80376243591,9e-08,0.0,0.0,0.0,9e-08,0.0,0.0,0.0,9e-08
1560461788965702250,40831,1560461788963006656,base_link,-0.00817214781499,-0.00323158030434,-0.672387324275,-0.740147360535,1.0,0.0,0.0,0.0,1.0,0.0,0.0,0.0,1.0,0.00119587103836,-0.00174393132329,0.00574846426025,1.21846967915e-07,0.0,0.0,0.0,1.21846967915e-07,0.0,0.0,0.0,1.21846967915e-07,0.0614109858871,0.165916353464,9.82516002655,9e-08,0.0,0.0,0.0,9e-08,0.0,0.0,0.0,9e-08
1560461788982338472,40832,1560461788979006656,base_link,-0.00817448959926,-0.0032294268638,-0.672405760887,-0.740130609797,1.0,0.0,0.0,0.0,1.0,0.0,0.0,0.0,1.0,0.000450250779977,-3.67523171008e-05,0.00575187103823,1.21846967915e-07,0.0,0.0,0.0,1.21846967915e-07,0.0,0.0,0.0,1.21846967915e-07,0.0678317025304,0.174050539732,9.84017658234,9e-08,0.0,0.0,0.0,9e-08,0.0,0.0,0.0,9e-08
1560461789006681119,40833,1560461789003006656,base_link,-0.00816231278203,-0.003223848004,-0.672425367074,-0.740112942365,1.0,0.0,0.0,0.0,1.0,0.0,0.0,0.0,1.0,-9.3976057542e-05,-0.00131865323056,0.00459441868588,1.21846967915e-07,0.0,0.0,0.0,1.21846967915e-07,0.0,0.0,0.0,1.21846967915e-07,0.0692527070642,0.173267185688,9.80774974823,9e-08,0.0,0.0,0.0,9e-08,0.0,0.0,0.0,9e-08
1560461789022771827,40834,1560461789019006656,base_link,-0.00817166312623,-0.00322062080664,-0.672443134605,-0.74009669212,1.0,0.0,0.0,0.0,1.0,0.0,0.0,0.0,1.0,-7.07124709152e-05,0.000711034517735,0.00649358471856,1.21846967915e-07,0.0,0.0,0.0,1.21846967915e-07,0.0,0.0,0.0,1.21846967915e-07,0.0586758628488,0.156266450882,9.80418395996,9e-08,0.0,0.0,0.0,9e-08,0.0,0.0,0.0,9e-08
1560461789042664522,40835,1560461789039006656,base_link,-0.00816531706208,-0.00323283450236,-0.672459627193,-0.740081801112,1.0,0.0,0.0,0.0,1.0,0.0,0.0,0.0,1.0,0.000340981874615,0.00262243766338,0.00552332960069,1.21846967915e-07,0.0,0.0,0.0,1.21846967915e-07,0.0,0.0,0.0,1.21846967915e-07,0.0617844611406,0.17960716784,9.81718063354,9e-08,0.0,0.0,0.0,9e-08,0.0,0.0,0.0,9e-08
1560461789065225646,40836,1560461789063004864,base_link,-0.00816262460286,-0.00323695468607,-0.672489575163,-0.74005455054,1.0,0.0,0.0,0.0,1.0,0.0,0.0,0.0,1.0,0.00109210785013,-0.00109611800872,0.00595326162875,1.21846967915e-07,0.0,0.0,0.0,1.21846967915e-07,0.0,0.0,0.0,1.21846967915e-07,0.0468295142055,0.142972290516,9.80484199524,9e-08,0.0,0.0,0.0,9e-08,0.0,0.0,0.0,9e-08
1560461789083941950,40837,1560461789079004864,base_link,-0.00817164188817,-0.00323947641763,-0.672507637722,-0.740038005268,1.0,0.0,0.0,0.0,1.0,0.0,0.0,0.0,1.0,0.000967127154581,-0.00121391727589,0.00457237754017,1.21846967915e-07,0.0,0.0,0.0,1.21846967915e-07,0.0,0.0,0.0,1.21846967915e-07,0.0763838812709,0.166222512722,9.8053855896,9e-08,0.0,0.0,0.0,9e-08,0.0,0.0,0.0,9e-08
1560461789102632936,40838,1560461789099004864,base_link,-0.00817743312857,-0.00323863084648,-0.672523714111,-0.740023361872,1.0,0.0,0.0,0.0,1.0,0.0,0.0,0.0,1.0,0.000339396035997,0.000916439690627,0.00531346071512,1.21846967915e-07,0.0,0.0,0.0,1.21846967915e-07,0.0,0.0,0.0,1.21846967915e-07,0.0666190981865,0.164588600397,9.75454616547,9e-08,0.0,0.0,0.0,9e-08,0.0,0.0,0.0,9e-08
1560461789123828463,40839,1560461789119004864,base_link,-0.00817309134463,-0.00324324263367,-0.672540928464,-0.740007749099,1.0,0.0,0.0,0.0,1.0,0.0,0.0,0.0,1.0,0.00117850734387,-4.32814704254e-05,0.00445472449064,1.21846967915e-07,0.0,0.0,0.0,1.21846967915e-07,0.0,0.0,0.0,1.21846967915e-07,0.0954982042313,0.160853385925,9.77596569061,9e-08,0.0,0.0,0.0,9e-08,0.0,0.0,0.0,9e-08
1560461789146101478,40840,1560461789143004864,base_link,-0.00818258064172,-0.0032455623567,-0.672561230074,-0.739989133363,1.0,0.0,0.0,0.0,1.0,0.0,0.0,0.0,1.0,0.000959939614404,0.000486313831061,0.0040278271772,1.21846967915e-07,0.0,0.0,0.0,1.21846967915e-07,0.0,0.0,0.0,1.21846967915e-07,0.0683948993683,0.167669773102,9.81508922577,9e-08,0.0,0.0,0.0,9e-08,0.0,0.0,0.0,9e-08
1560461789162721548,40841,1560461789159002816,base_link,-0.00817835591407,-0.00324100210062,-0.672574153352,-0.739977558785,1.0,0.0,0.0,0.0,1.0,0.0,0.0,0.0,1.0,-0.000204898358788,-0.000364292762242,0.00447035441175,1.21846967915e-07,0.0,0.0,0.0,1.21846967915e-07,0.0,0.0,0.0,1.21846967915e-07,0.066610775888,0.162959933281,9.82314968109,9e-08,0.0,0.0,0.0,9e-08,0.0,0.0,0.0,9e-08
1560461789183944418,40842,1560461789179002816,base_link,-0.00817721333934,-0.00324091846547,-0.672594665696,-0.739958900902,1.0,0.0,0.0,0.0,1.0,0.0,0.0,0.0,1.0,0.000419677235186,-0.000794100575149,0.00339977676049,1.21846967915e-07,0.0,0.0,0.0,1.21846967915e-07,0.0,0.0,0.0,1.21846967915e-07,0.0491766221821,0.135734409094,9.80273628235,9e-08,0.0,0.0,0.0,9e-08,0.0,0.0,0.0,9e-08
1560461789201995286,40843,1560461789199002816,base_link,-0.00818546621912,-0.00323675646417,-0.672614854036,-0.739940567023,1.0,0.0,0.0,0.0,1.0,0.0,0.0,0.0,1.0,0.0020231208764,0.00103078887332,0.00464457087219,1.21846967915e-07,0.0,0.0,0.0,1.21846967915e-07,0.0,0.0,0.0,1.21846967915e-07,0.0887238606811,0.190829634666,9.84851551056,9e-08,0.0,0.0,0.0,9e-08,0.0,0.0,0.0,9e-08
1560461789223739264,40844,1560461789219002816,base_link,-0.00818047692129,-0.00323593739944,-0.672636991669,-0.739920368145,1.0,0.0,0.0,0.0,1.0,0.0,0.0,0.0,1.0,1.31575288833e-05,0.000386754400097,0.0053078350611,1.21846967915e-07,0.0,0.0,0.0,1.21846967915e-07,0.0,0.0,0.0,1.21846967915e-07,0.062853589654,0.148377373815,9.82833862305,9e-08,0.0,0.0,0.0,9e-08,0.0,0.0,0.0,9e-08
1560461789243847421,40845,1560461789239002816,base_link,-0.00818769621546,-0.00323795485054,-0.672650075631,-0.739908380001,1.0,0.0,0.0,0.0,1.0,0.0,0.0,0.0,1.0,0.00118116324302,-0.000360138714314,0.00466061895713,1.21846967915e-07,0.0,0.0,0.0,1.21846967915e-07,0.0,0.0,0.0,1.21846967915e-07,0.0620508417487,0.14572943747,9.80485439301,9e-08,0.0,0.0,0.0,9e-08,0.0,0.0,0.0,9e-08
1560461789263754474,40846,1560461789258999488,base_link,-0.0081860895315,-0.00324511965015,-0.672672890247,-0.739887672728,1.0,0.0,0.0,0.0,1.0,0.0,0.0,0.0,1.0,0.000131101871375,0.00123916915618,0.00572894467041,1.21846967915e-07,0.0,0.0,0.0,1.21846967915e-07,0.0,0.0,0.0,1.21846967915e-07,0.0746688842773,0.166063949466,9.78824996948,9e-08,0.0,0.0,0.0,9e-08,0.0,0.0,0.0,9e-08
1560461789282172900,40847,1560461789278999488,base_link,-0.00817926766894,-0.00324152070442,-0.672693447372,-0.739869054357,1.0,0.0,0.0,0.0,1.0,0.0,0.0,0.0,1.0,-0.000301936670439,-0.000252118567005,0.00542418379337,1.21846967915e-07,0.0,0.0,0.0,1.21846967915e-07,0.0,0.0,0.0,1.21846967915e-07,0.0456408560276,0.169857829809,9.79093837738,9e-08,0.0,0.0,0.0,9e-08,0.0,0.0,0.0,9e-08
1560461789303583834,40848,1560461789298999488,base_link,-0.00818901412766,-0.00323515653029,-0.672713248488,-0.739850854821,1.0,0.0,0.0,0.0,1.0,0.0,0.0,0.0,1.0,0.00182769051753,0.000179125694558,0.00559868337587,1.21846967915e-07,0.0,0.0,0.0,1.21846967915e-07,0.0,0.0,0.0,1.21846967915e-07,0.0509666502476,0.150368988514,9.79206562042,9e-08,0.0,0.0,0.0,9e-08,0.0,0.0,0.0,9e-08
1560461789322642579,40849,1560461789318999488,base_link,-0.0081928787961,-0.00323498234527,-0.672733083849,-0.739832873922,1.0,0.0,0.0,0.0,1.0,0.0,0.0,0.0,1.0,0.000641468679532,0.000487478449941,0.00412003137171,1.21846967915e-07,0.0,0.0,0.0,1.21846967915e-07,0.0,0.0,0.0,1.21846967915e-07,0.0855812877417,0.149494439363,9.82548904419,9e-08,0.0,0.0,0.0,9e-08,0.0,0.0,0.0,9e-08
1560461789342297657,40850,1560461789338999488,base_link,-0.00819157915851,-0.00323248086396,-0.67274836735,-0.739819023414,1.0,0.0,0.0,0.0,1.0,0.0,0.0,0.0,1.0,0.000120726370369,-0.00184793281369,0.0053078988567,1.21846967915e-07,0.0,0.0,0.0,1.21846967915e-07,0.0,0.0,0.0,1.21846967915e-07,0.0784459114075,0.154511153698,9.79577350616,9e-08,0.0,0.0,0.0,9e-08,0.0,0.0,0.0,9e-08
1560461789363839006,40851,1560461789358996672,base_link,-0.00818866905033,-0.00322798234642,-0.672763513874,-0.739805309883,1.0,0.0,0.0,0.0,1.0,0.0,0.0,0.0,1.0,-0.000750201288611,-0.00175113719888,0.00350777385756,1.21846967915e-07,0.0,0.0,0.0,1.21846967915e-07,0.0,0.0,0.0,1.21846967915e-07,0.0789260938764,0.140126973391,9.75530815125,9e-08,0.0,0.0,0.0,9e-08,0.0,0.0,0.0,9e-08
1560461789383792140,40852,1560461789378996672,base_link,-0.0082072935122,-0.0032292090502,-0.672779031816,-0.739790887758,1.0,0.0,0.0,0.0,1.0,0.0,0.0,0.0,1.0,0.00158507318702,-0.000370393274352,0.00272349198349,1.21846967915e-07,0.0,0.0,0.0,1.21846967915e-07,0.0,0.0,0.0,1.21846967915e-07,0.0677303448319,0.127891913056,9.80812072754,9e-08,0.0,0.0,0.0,9e-08,0.0,0.0,0.0,9e-08
1560461789402708226,40853,1560461789398996672,base_link,-0.00821448959267,-0.00322347493854,-0.672799422989,-0.739772351048,1.0,0.0,0.0,0.0,1.0,0.0,0.0,0.0,1.0,0.00129600451328,-0.0020669689402,0.00529438955709,1.21846967915e-07,0.0,0.0,0.0,1.21846967915e-07,0.0,0.0,0.0,1.21846967915e-07,0.0341444276273,0.131305918097,9.78775787354,9e-08,0.0,0.0,0.0,9e-08,0.0,0.0,0.0,9e-08
1560461789422724019,40854,1560461789418996672,base_link,-0.00821924263766,-0.00322446703584,-0.672816913931,-0.739756377392,1.0,0.0,0.0,0.0,1.0,0.0,0.0,0.0,1.0,3.16510704579e-06,-0.000888165668584,0.00412111496553,1.21846967915e-07,0.0,0.0,0.0,1.21846967915e-07,0.0,0.0,0.0,1.21846967915e-07,0.0597287677228,0.168889194727,9.79818439484,9e-08,0.0,0.0,0.0,9e-08,0.0,0.0,0.0,9e-08
1560461789442739202,40855,1560461789438996672,base_link,-0.00822086479742,-0.00322457948231,-0.672838695949,-0.739736618423,1.0,0.0,0.0,0.0,1.0,0.0,0.0,0.0,1.0,0.000877266051248,-0.000574443722144,0.00529339583591,1.21846967915e-07,0.0,0.0,0.0,1.21846967915e-07,0.0,0.0,0.0,1.21846967915e-07,0.0984259173274,0.116167493165,9.81936645508,9e-08,0.0,0.0,0.0,9e-08,0.0,0.0,0.0,9e-08
1560461789463060401,40856,1560461789458994368,base_link,-0.00821647181164,-0.00322041929202,-0.672854366674,-0.739722464984,1.0,0.0,0.0,0.0,1.0,0.0,0.0,0.0,1.0,-0.00190321228001,-4.0642102249e-05,0.00479146745056,1.21846967915e-07,0.0,0.0,0.0,1.21846967915e-07,0.0,0.0,0.0,1.21846967915e-07,0.0540833175182,0.152713567019,9.80284976959,9e-08,0.0,0.0,0.0,9e-08,0.0,0.0,0.0,9e-08
1560461789482324840,40857,1560461789478994368,base_link,-0.00821869456399,-0.00321510533175,-0.672874233645,-0.739704283887,1.0,0.0,0.0,0.0,1.0,0.0,0.0,0.0,1.0,-0.000844589958433,-0.00132032646798,0.00446349615231,1.21846967915e-07,0.0,0.0,0.0,1.21846967915e-07,0.0,0.0,0.0,1.21846967915e-07,0.0930011048913,0.18777628243,9.79687213898,9e-08,0.0,0.0,0.0,9e-08,0.0,0.0,0.0,9e-08
1560461789503798684,40858,1560461789498994368,base_link,-0.00822074774113,-0.00321594053082,-0.672893052213,-0.739687151193,1.0,0.0,0.0,0.0,1.0,0.0,0.0,0.0,1.0,-0.000956112227868,-4.22367593274e-05,0.00402472261339,1.21846967915e-07,0.0,0.0,0.0,1.21846967915e-07,0.0,0.0,0.0,1.21846967915e-07,0.056073077023,0.175297677517,9.75654697418,9e-08,0.0,0.0,0.0,9e-08,0.0,0.0,0.0,9e-08
1560461789522134796,40859,1560461789518994368,base_link,-0.00821158804557,-0.00322407816531,-0.672913388067,-0.739668754094,1.0,0.0,0.0,0.0,1.0,0.0,0.0,0.0,1.0,-0.00222370633855,0.00144095416181,0.00435067946091,1.21846967915e-07,0.0,0.0,0.0,1.21846967915e-07,0.0,0.0,0.0,1.21846967915e-07,0.0367292277515,0.169740065932,9.8078289032,9e-08,0.0,0.0,0.0,9e-08,0.0,0.0,0.0,9e-08
1560461789542705466,40860,1560461789538994368,base_link,-0.00820543197151,-0.00322059578195,-0.672933510553,-0.739650486069,1.0,0.0,0.0,0.0,1.0,0.0,0.0,0.0,1.0,-0.000736411486287,0.000597983947955,0.00518280081451,1.21846967915e-07,0.0,0.0,0.0,1.21846967915e-07,0.0,0.0,0.0,1.21846967915e-07,0.0503482222557,0.139014899731,9.82874965668,9e-08,0.0,0.0,0.0,9e-08,0.0,0.0,0.0,9e-08
1560461789563950663,40861,1560461789558992064,base_link,-0.00820139476441,-0.0032201667402,-0.672949979434,-0.739635534475,1.0,0.0,0.0,0.0,1.0,0.0,0.0,0.0,1.0,-0.00138927716762,-4.46329358965e-05,0.00423963414505,1.21846967915e-07,0.0,0.0,0.0,1.21846967915e-07,0.0,0.0,0.0,1.21846967915e-07,0.0530535690486,0.171802923083,9.81560230255,9e-08,0.0,0.0,0.0,9e-08,0.0,0.0,0.0,9e-08
1560461789583954218,40862,1560461789578992064,base_link,-0.00820814303461,-0.00321750144594,-0.672972620194,-0.73961483247,1.0,0.0,0.0,0.0,1.0,0.0,0.0,0.0,1.0,0.000561514520086,-0.000781369162723,0.00592059269547,1.21846967915e-07,0.0,0.0,0.0,1.21846967915e-07,0.0,0.0,0.0,1.21846967915e-07,0.0515607371926,0.191572099924,9.77939128876,9e-08,0.0,0.0,0.0,9e-08,0.0,0.0,0.0,9e-08
1560461789602158761,40863,1560461789598992064,base_link,-0.00820682446387,-0.00321233862164,-0.672996441066,-0.739593287528,1.0,0.0,0.0,0.0,1.0,0.0,0.0,0.0,1.0,0.00140733027365,-0.000250385142863,0.00568979699165,1.21846967915e-07,0.0,0.0,0.0,1.21846967915e-07,0.0,0.0,0.0,1.21846967915e-07,0.0362844131887,0.169352889061,9.81037521362,9e-08,0.0,0.0,0.0,9e-08,0.0,0.0,0.0,9e-08
1560461789623871647,40864,1560461789619992064,base_link,-0.00820406944292,-0.00322099288429,-0.673015612614,-0.739575801854,1.0,0.0,0.0,0.0,1.0,0.0,0.0,0.0,1.0,0.000869903131388,0.0015588356182,0.00537052145228,1.21846967915e-07,0.0,0.0,0.0,1.21846967915e-07,0.0,0.0,0.0,1.21846967915e-07,0.0486048571765,0.14914020896,9.76894187927,9e-08,0.0,0.0,0.0,9e-08,0.0,0.0,0.0,9e-08
1560461789642695495,40865,1560461789639992064,base_link,-0.008212367433,-0.0032269892613,-0.67303520563,-0.739557894711,1.0,0.0,0.0,0.0,1.0,0.0,0.0,0.0,1.0,0.000955871131737,0.00133967748843,0.0038776602596,1.21846967915e-07,0.0,0.0,0.0,1.21846967915e-07,0.0,0.0,0.0,1.21846967915e-07,0.0616104193032,0.169834375381,9.81705856323,9e-08,0.0,0.0,0.0,9e-08,0.0,0.0,0.0,9e-08
1560461789663484022,40866,1560461789659991808,base_link,-0.0082104229157,-0.00322549354209,-0.673050989625,-0.73954354371,1.0,0.0,0.0,0.0,1.0,0.0,0.0,0.0,1.0,-0.000406136387028,0.000387277104892,0.00538581889123,1.21846967915e-07,0.0,0.0,0.0,1.21846967915e-07,0.0,0.0,0.0,1.21846967915e-07,0.0377170778811,0.132523432374,9.77417564392,9e-08,0.0,0.0,0.0,9e-08,0.0,0.0,0.0,9e-08
1560461789682918234,40867,1560461789679991808,base_link,-0.00820898498377,-0.00323172040969,-0.67306906272,-0.739527072194,1.0,0.0,0.0,0.0,1.0,0.0,0.0,0.0,1.0,0.00129685807042,0.000279437866993,0.00546955643222,1.21846967915e-07,0.0,0.0,0.0,1.21846967915e-07,0.0,0.0,0.0,1.21846967915e-07,0.0617335103452,0.141041427851,9.75328731537,9e-08,0.0,0.0,0.0,9e-08,0.0,0.0,0.0,9e-08
1560461789704833848,40868,1560461789699991808,base_link,-0.00821312508845,-0.00323181606328,-0.67308850032,-0.739509236175,1.0,0.0,0.0,0.0,1.0,0.0,0.0,0.0,1.0,0.000858825165778,0.000385139952414,0.00472984462976,1.21846967915e-07,0.0,0.0,0.0,1.21846967915e-07,0.0,0.0,0.0,1.21846967915e-07,0.0755462124944,0.166039183736,9.82340717316,9e-08,0.0,0.0,0.0,9e-08,0.0,0.0,0.0,9e-08
1560461789723085104,40869,1560461789719991808,base_link,-0.00821073029135,-0.00324017595653,-0.673099284645,-0.739499547668,1.0,0.0,0.0,0.0,1.0,0.0,0.0,0.0,1.0,0.000831758254208,0.00155208189972,0.00312608201057,1.21846967915e-07,0.0,0.0,0.0,1.21846967915e-07,0.0,0.0,0.0,1.21846967915e-07,0.0652499049902,0.158444643021,9.80766582489,9e-08,0.0,0.0,0.0,9e-08,0.0,0.0,0.0,9e-08
1560461789743144613,40870,1560461789739991808,base_link,-0.00820670888931,-0.00324205182056,-0.67310957111,-0.739490188434,1.0,0.0,0.0,0.0,1.0,0.0,0.0,0.0,1.0,-0.000651713518891,-0.000377096235752,0.00304362364113,1.21846967915e-07,0.0,0.0,0.0,1.21846967915e-07,0.0,0.0,0.0,1.21846967915e-07,0.0646302253008,0.177757441998,9.77111244202,9e-08,0.0,0.0,0.0,9e-08,0.0,0.0,0.0,9e-08
1560461789763455313,40871,1560461789759988736,base_link,-0.00821399765993,-0.00324275251192,-0.673124277726,-0.739476661929,1.0,0.0,0.0,0.0,1.0,0.0,0.0,0.0,1.0,0.00363244302571,0.000702876830474,0.0053250757046,1.21846967915e-07,0.0,0.0,0.0,1.21846967915e-07,0.0,0.0,0.0,1.21846967915e-07,0.0453107580543,0.154926791787,9.77456665039,9e-08,0.0,0.0,0.0,9e-08,0.0,0.0,0.0,9e-08
1560461789784058988,40872,1560461789779988736,base_link,-0.00821007652129,-0.00323808227891,-0.673143804888,-0.739459073523,1.0,0.0,0.0,0.0,1.0,0.0,0.0,0.0,1.0,0.000321592553519,0.000805483665317,0.00408975500613,1.21846967915e-07,0.0,0.0,0.0,1.21846967915e-07,0.0,0.0,0.0,1.21846967915e-07,0.0501500554383,0.155781656504,9.78531837463,9e-08,0.0,0.0,0.0,9e-08,0.0,0.0,0.0,9e-08
1560461789803061533,40873,1560461789799988736,base_link,-0.00821812689863,-0.00323859298017,-0.67316313712,-0.73944134287,1.0,0.0,0.0,0.0,1.0,0.0,0.0,0.0,1.0,0.000229410594329,-0.000678210111801,0.00515609327704,1.21846967915e-07,0.0,0.0,0.0,1.21846967915e-07,0.0,0.0,0.0,1.21846967915e-07,0.075143918395,0.133041292429,9.8015871048,9e-08,0.0,0.0,0.0,9e-08,0.0,0.0,0.0,9e-08
1560461789824798641,40874,1560461789819988736,base_link,-0.00821607882521,-0.00323081556953,-0.673178483842,-0.739427429142,1.0,0.0,0.0,0.0,1.0,0.0,0.0,0.0,1.0,-0.00255005527288,0.00112616259139,0.00422668736428,1.21846967915e-07,0.0,0.0,0.0,1.21846967915e-07,0.0,0.0,0.0,1.21846967915e-07,0.062495701015,0.191431775689,9.78162288666,9e-08,0.0,0.0,0.0,9e-08,0.0,0.0,0.0,9e-08
1560461789843650798,40875,1560461789839988736,base_link,-0.00820360516905,-0.0032325681211,-0.673191554633,-0.739415538462,1.0,0.0,0.0,0.0,1.0,0.0,0.0,0.0,1.0,0.000115919901873,0.000487318029627,0.00461829686537,1.21846967915e-07,0.0,0.0,0.0,1.21846967915e-07,0.0,0.0,0.0,1.21846967915e-07,0.0740524828434,0.160094231367,9.78764724731,9e-08,0.0,0.0,0.0,9e-08,0.0,0.0,0.0,9e-08
1560461789863908831,40876,1560461789859984128,base_link,-0.00821057981393,-0.00323849436313,-0.673205431483,-0.739402926018,1.0,0.0,0.0,0.0,1.0,0.0,0.0,0.0,1.0,0.00299388403073,-0.000253773177974,0.00490536680445,1.21846967915e-07,0.0,0.0,0.0,1.21846967915e-07,0.0,0.0,0.0,1.21846967915e-07,0.0827150419354,0.147751778364,9.79853820801,9e-08,0.0,0.0,0.0,9e-08,0.0,0.0,0.0,9e-08
1560461789883715813,40877,1560461789879984128,base_link,-0.00820983631718,-0.00324285853759,-0.67322112855,-0.73938857765,1.0,0.0,0.0,0.0,1.0,0.0,0.0,0.0,1.0,-0.000309921597363,-0.000255451421253,0.00462452927604,1.21846967915e-07,0.0,0.0,0.0,1.21846967915e-07,0.0,0.0,0.0,1.21846967915e-07,0.0606126450002,0.15595266223,9.81919193268,9e-08,0.0,0.0,0.0,9e-08,0.0,0.0,0.0,9e-08
1560461789903464450,40878,1560461789899984128,base_link,-0.00821095024522,-0.0032347956479,-0.673238408758,-0.739372899022,1.0,0.0,0.0,0.0,1.0,0.0,0.0,0.0,1.0,-0.000724227342289,-0.000996353337541,0.00548369623721,1.21846967915e-07,0.0,0.0,0.0,1.21846967915e-07,0.0,0.0,0.0,1.21846967915e-07,0.0751236379147,0.13779117167,9.79968833923,9e-08,0.0,0.0,0.0,9e-08,0.0,0.0,0.0,9e-08
1560461789925326862,40879,1560461789919984128,base_link,-0.00821930997384,-0.00322762920193,-0.673256005067,-0.73935682,1.0,0.0,0.0,0.0,1.0,0.0,0.0,0.0,1.0,0.000962767750025,-0.00153423112351,0.00429325411096,1.21846967915e-07,0.0,0.0,0.0,1.21846967915e-07,0.0,0.0,0.0,1.21846967915e-07,0.0991772860289,0.162906691432,9.78136348724,9e-08,0.0,0.0,0.0,9e-08,0.0,0.0,0.0,9e-08
1560461789945721951,40880,1560461789939984128,base_link,-0.00821444283601,-0.00322452795121,-0.673272848001,-0.739341578646,1.0,0.0,0.0,0.0,1.0,0.0,0.0,0.0,1.0,-0.00181605631951,5.66716771573e-05,0.00357600278221,1.21846967915e-07,0.0,0.0,0.0,1.21846967915e-07,0.0,0.0,0.0,1.21846967915e-07,0.0747796297073,0.159019082785,9.76566314697,9e-08,0.0,0.0,0.0,9e-08,0.0,0.0,0.0,9e-08
1560461789964548881,40881,1560461789959981056,base_link,-0.00820697411811,-0.00321790118246,-0.673287109441,-0.739328581611,1.0,0.0,0.0,0.0,1.0,0.0,0.0,0.0,1.0,-0.00095161027275,-0.000995069509372,0.00506354495883,1.21846967915e-07,0.0,0.0,0.0,1.21846967915e-07,0.0,0.0,0.0,1.21846967915e-07,0.0628265738487,0.157338902354,9.80454921722,9e-08,0.0,0.0,0.0,9e-08,0.0,0.0,0.0,9e-08
1560461789984438123,40882,1560461789979981056,base_link,-0.0082258315401,-0.00321853009246,-0.673305675128,-0.739311533211,1.0,0.0,0.0,0.0,1.0,0.0,0.0,0.0,1.0,0.000209592515603,-0.00185397965834,0.00429321173579,1.21846967915e-07,0.0,0.0,0.0,1.21846967915e-07,0.0,0.0,0.0,1.21846967915e-07,0.0692385286093,0.145614087582,9.85474395752,9e-08,0.0,0.0,0.0,9e-08,0.0,0.0,0.0,9e-08
1560461790002994798,40883,1560461789999981056,base_link,-0.00821715060639,-0.00322829630752,-0.673323745589,-0.73929506433,1.0,0.0,0.0,0.0,1.0,0.0,0.0,0.0,1.0,-0.000847762683406,0.00144128059037,0.00461608078331,1.21846967915e-07,0.0,0.0,0.0,1.21846967915e-07,0.0,0.0,0.0,1.21846967915e-07,0.0555573254824,0.155785784125,9.79274940491,9e-08,0.0,0.0,0.0,9e-08,0.0,0.0,0.0,9e-08
1560461790023863341,40884,1560461790019981056,base_link,-0.00821589328029,-0.00323767743867,-0.673338157177,-0.739282001441,1.0,0.0,0.0,0.0,1.0,0.0,0.0,0.0,1.0,0.000647499866318,-0.000681800476741,0.00460651423782,1.21846967915e-07,0.0,0.0,0.0,1.21846967915e-07,0.0,0.0,0.0,1.21846967915e-07,0.0311244614422,0.165780335665,9.78630161285,9e-08,0.0,0.0,0.0,9e-08,0.0,0.0,0.0,9e-08
1560461790043714685,40885,1560461790039981056,base_link,-0.00822280437563,-0.00323405379751,-0.673357810779,-0.739264033713,1.0,0.0,0.0,0.0,1.0,0.0,0.0,0.0,1.0,-0.00106316676829,-0.00131593248807,0.00420302851126,1.21846967915e-07,0.0,0.0,0.0,1.21846967915e-07,0.0,0.0,0.0,1.21846967915e-07,0.100826129317,0.153402209282,9.79996871948,9e-08,0.0,0.0,0.0,9e-08,0.0,0.0,0.0,9e-08
1560461790064486378,40886,1560461790059977728,base_link,-0.00820777918877,-0.00323838422156,-0.673376861155,-0.739246753505,1.0,0.0,0.0,0.0,1.0,0.0,0.0,0.0,1.0,-0.000520326721016,0.000811512465589,0.00535568222404,1.21846967915e-07,0.0,0.0,0.0,1.21846967915e-07,0.0,0.0,0.0,1.21846967915e-07,0.0471734181046,0.12488026917,9.76969432831,9e-08,0.0,0.0,0.0,9e-08,0.0,0.0,0.0,9e-08
1560461790083793752,40887,1560461790080977728,base_link,-0.00820884207961,-0.00322856268877,-0.673391470306,-0.739233493053,1.0,0.0,0.0,0.0,1.0,0.0,0.0,0.0,1.0,0.000424657133408,-0.00207108305767,0.00408641900867,1.21846967915e-07,0.0,0.0,0.0,1.21846967915e-07,0.0,0.0,0.0,1.21846967915e-07,0.0432273931801,0.181722849607,9.7945690155,9e-08,0.0,0.0,0.0,9e-08,0.0,0.0,0.0,9e-08
1560461790104664374,40888,1560461790100977728,base_link,-0.00821439756108,-0.00322538587006,-0.67340794709,-0.739218449262,1.0,0.0,0.0,0.0,1.0,0.0,0.0,0.0,1.0,0.000120563418022,-0.000379966630135,0.00427852012217,1.21846967915e-07,0.0,0.0,0.0,1.21846967915e-07,0.0,0.0,0.0,1.21846967915e-07,0.0369406305254,0.156890004873,9.79820823669,9e-08,0.0,0.0,0.0,9e-08,0.0,0.0,0.0,9e-08
1560461790123803038,40889,1560461790120977728,base_link,-0.00820293477074,-0.00322509627512,-0.673423101516,-0.739204727829,1.0,0.0,0.0,0.0,1.0,0.0,0.0,0.0,1.0,-0.00126778031699,-0.000363848695997,0.00462401052937,1.21846967915e-07,0.0,0.0,0.0,1.21846967915e-07,0.0,0.0,0.0,1.21846967915e-07,0.0390864610672,0.158127039671,9.77590084076,9e-08,0.0,0.0,0.0,9e-08,0.0,0.0,0.0,9e-08
1560461790143767223,40890,1560461790140977728,base_link,-0.00820379482986,-0.00321391155519,-0.673443126538,-0.739186557268,1.0,0.0,0.0,0.0,1.0,0.0,0.0,0.0,1.0,-0.00020710901299,-0.00163414736744,0.00429601129144,1.21846967915e-07,0.0,0.0,0.0,1.21846967915e-07,0.0,0.0,0.0,1.21846967915e-07,0.0846328139305,0.166172787547,9.82161426544,9e-08,0.0,0.0,0.0,9e-08,0.0,0.0,0.0,9e-08
1560461790163875475,40891,1560461790160975680,base_link,-0.00820933895144,-0.00320159759607,-0.673455602005,-0.739175261913,1.0,0.0,0.0,0.0,1.0,0.0,0.0,0.0,1.0,0.000305509020109,-0.00143032474443,0.00280305603519,1.21846967915e-07,0.0,0.0,0.0,1.21846967915e-07,0.0,0.0,0.0,1.21846967915e-07,0.0688884705305,0.188298225403,9.82859516144,9e-08,0.0,0.0,0.0,9e-08,0.0,0.0,0.0,9e-08
1560461790183800690,40892,1560461790180975680,base_link,-0.00820764468106,-0.00319275647142,-0.673469152217,-0.739162891813,1.0,0.0,0.0,0.0,1.0,0.0,0.0,0.0,1.0,-0.000844823662192,-0.000254330108874,0.00514117488638,1.21846967915e-07,0.0,0.0,0.0,1.21846967915e-07,0.0,0.0,0.0,1.21846967915e-07,0.0816838890314,0.151605457067,9.79063606262,9e-08,0.0,0.0,0.0,9e-08,0.0,0.0,0.0,9e-08
1560461790203597884,40893,1560461790200975680,base_link,-0.00821490447571,-0.00318795568196,-0.673492530547,-0.739141452238,1.0,0.0,0.0,0.0,1.0,0.0,0.0,0.0,1.0,-0.000395351671614,0.00155458773952,0.00544603215531,1.21846967915e-07,0.0,0.0,0.0,1.21846967915e-07,0.0,0.0,0.0,1.21846967915e-07,0.0572977401316,0.126263827085,9.77722358704,9e-08,0.0,0.0,0.0,9e-08,0.0,0.0,0.0,9e-08
1560461790224474946,40894,1560461790220975680,base_link,-0.0082148542617,-0.00318492654185,-0.673506457446,-0.739128958332,1.0,0.0,0.0,0.0,1.0,0.0,0.0,0.0,1.0,-0.000543286208995,0.0018662000075,0.00353238591924,1.21846967915e-07,0.0,0.0,0.0,1.21846967915e-07,0.0,0.0,0.0,1.21846967915e-07,0.0523552522063,0.152535691857,9.82120037079,9e-08,0.0,0.0,0.0,9e-08,0.0,0.0,0.0,9e-08
1560461790243797880,40895,1560461790240975680,base_link,-0.00820039953902,-0.00319237435097,-0.673522362613,-0.739114570451,1.0,0.0,0.0,0.0,1.0,0.0,0.0,0.0,1.0,-0.00019925761444,0.000701128970832,0.0047023720108,1.21846967915e-07,0.0,0.0,0.0,1.21846967915e-07,0.0,0.0,0.0,1.21846967915e-07,0.0693402290344,0.190393686295,9.7924861908,9e-08,0.0,0.0,0.0,9e-08,0.0,0.0,0.0,9e-08
1560461790263639342,40896,1560461790260973888,base_link,-0.00820654063119,-0.00319121317236,-0.673541813383,-0.739096636967,1.0,0.0,0.0,0.0,1.0,0.0,0.0,0.0,1.0,0.000127683233586,-0.000781781738624,0.00554940430447,1.21846967915e-07,0.0,0.0,0.0,1.21846967915e-07,0.0,0.0,0.0,1.21846967915e-07,0.0955256894231,0.137790188193,9.83023452759,9e-08,0.0,0.0,0.0,9e-08,0.0,0.0,0.0,9e-08
1560461790283796362,40897,1560461790280973888,base_link,-0.00820157471169,-0.00318456104965,-0.673561316837,-0.739079072268,1.0,0.0,0.0,0.0,1.0,0.0,0.0,0.0,1.0,-9.80611948762e-05,0.000914451433346,0.00458521023393,1.21846967915e-07,0.0,0.0,0.0,1.21846967915e-07,0.0,0.0,0.0,1.21846967915e-07,0.0520248115063,0.117068991065,9.81643104553,9e-08,0.0,0.0,0.0,9e-08,0.0,0.0,0.0,9e-08
1560461790305020124,40898,1560461790300973888,base_link,-0.00819774395829,-0.003183878139,-0.673579160759,-0.739062829926,1.0,0.0,0.0,0.0,1.0,0.0,0.0,0.0,1.0,0.00173677352723,0.000816718791611,0.00636900076643,1.21846967915e-07,0.0,0.0,0.0,1.21846967915e-07,0.0,0.0,0.0,1.21846967915e-07,0.0768892988563,0.159573018551,9.79403686523,9e-08,0.0,0.0,0.0,9e-08,0.0,0.0,0.0,9e-08
1560461790324951262,40899,1560461790320973888,base_link,-0.00820446967335,-0.003185587062,-0.673600165695,-0.739043679452,1.0,0.0,0.0,0.0,1.0,0.0,0.0,0.0,1.0,-0.000837340543512,6.48850109428e-05,0.00502167036757,1.21846967915e-07,0.0,0.0,0.0,1.21846967915e-07,0.0,0.0,0.0,1.21846967915e-07,0.0580209940672,0.171019718051,9.80755996704,9e-08,0.0,0.0,0.0,9e-08,0.0,0.0,0.0,9e-08
1560461790344328016,40900,1560461790340973888,base_link,-0.00820365752333,-0.00318562739785,-0.673615997105,-0.739029196741,1.0,0.0,0.0,0.0,1.0,0.0,0.0,0.0,1.0,0.00225037476048,0.000277610030025,0.00551179330796,1.21846967915e-07,0.0,0.0,0.0,1.21846967915e-07,0.0,0.0,0.0,1.21846967915e-07,0.101669900119,0.138485342264,9.79193496704,9e-08,0.0,0.0,0.0,9e-08,0.0,0.0,0.0,9e-08
1560461790362200763,40901,1560461790356971840,base_link,-0.00821468699139,-0.00318709842164,-0.673628883504,-0.739017321867,1.0,0.0,0.0,0.0,1.0,0.0,0.0,0.0,1.0,0.00149575667456,-0.00174651993439,0.00435814540833,1.21846967915e-07,0.0,0.0,0.0,1.21846967915e-07,0.0,0.0,0.0,1.21846967915e-07,0.0649504065514,0.15811803937,9.79291534424,9e-08,0.0,0.0,0.0,9e-08,0.0,0.0,0.0,9e-08
1560461790381745469,40902,1560461790376971840,base_link,-0.00822286776054,-0.00319189624765,-0.673646664206,-0.739000974158,1.0,0.0,0.0,0.0,1.0,0.0,0.0,0.0,1.0,0.00106693932321,-0.00186083756853,0.00404040608555,1.21846967915e-07,0.0,0.0,0.0,1.21846967915e-07,0.0,0.0,0.0,1.21846967915e-07,0.090951859951,0.159582436085,9.80538272858,9e-08,0.0,0.0,0.0,9e-08,0.0,0.0,0.0,9e-08
1560461790403477831,40903,1560461790400971840,base_link,-0.0082236645994,-0.00318552285391,-0.673662374444,-0.738986696913,1.0,0.0,0.0,0.0,1.0,0.0,0.0,0.0,1.0,0.000433767796494,0.00016883132048,0.00457392865792,1.21846967915e-07,0.0,0.0,0.0,1.21846967915e-07,0.0,0.0,0.0,1.21846967915e-07,0.0834061726928,0.161060243845,9.7836894989,9e-08,0.0,0.0,0.0,9e-08,0.0,0.0,0.0,9e-08
1560461790422003024,40904,1560461790416971840,base_link,-0.00822879433184,-0.00317729664519,-0.673674309904,-0.738975688683,1.0,0.0,0.0,0.0,1.0,0.0,0.0,0.0,1.0,8.92148091225e-06,-0.00173938064836,0.00417233118787,1.21846967915e-07,0.0,0.0,0.0,1.21846967915e-07,0.0,0.0,0.0,1.21846967915e-07,0.0626319944859,0.147114217281,9.81396102905,9e-08,0.0,0.0,0.0,9e-08,0.0,0.0,0.0,9e-08
1560461790443726179,40905,1560461790440971840,base_link,-0.00822143871896,-0.00317584488382,-0.673693062618,-0.738958790431,1.0,0.0,0.0,0.0,1.0,0.0,0.0,0.0,1.0,0.000117242525448,-0.000261895009317,0.0047875973396,1.21846967915e-07,0.0,0.0,0.0,1.21846967915e-07,0.0,0.0,0.0,1.21846967915e-07,0.0801030173898,0.165449202061,9.78874969482,9e-08,0.0,0.0,0.0,9e-08,0.0,0.0,0.0,9e-08
1560461790464831608,40906,1560461790460969792,base_link,-0.0082174104022,-0.00316113365805,-0.673709307594,-0.738944062741,1.0,0.0,0.0,0.0,1.0,0.0,0.0,0.0,1.0,-0.00199957401492,-0.00174193433486,0.00567660434172,1.21846967915e-07,0.0,0.0,0.0,1.21846967915e-07,0.0,0.0,0.0,1.21846967915e-07,0.0929002091289,0.150275602937,9.7747926712,9e-08,0.0,0.0,0.0,9e-08,0.0,0.0,0.0,9e-08
1560461790483674348,40907,1560461790480969792,base_link,-0.00822456746392,-0.00316233747741,-0.673728408018,-0.738926479603,1.0,0.0,0.0,0.0,1.0,0.0,0.0,0.0,1.0,0.00289644883014,-0.001218300662,0.00497700273991,1.21846967915e-07,0.0,0.0,0.0,1.21846967915e-07,0.0,0.0,0.0,1.21846967915e-07,0.0486717000604,0.161022797227,9.78822040558,9e-08,0.0,0.0,0.0,9e-08,0.0,0.0,0.0,9e-08
1560461790503998591,40908,1560461790500969792,base_link,-0.00822690809573,-0.0031655602296,-0.673743878546,-0.738912357775,1.0,0.0,0.0,0.0,1.0,0.0,0.0,0.0,1.0,-0.000196064283955,0.000606221728958,0.0055299596861,1.21846967915e-07,0.0,0.0,0.0,1.21846967915e-07,0.0,0.0,0.0,1.21846967915e-07,0.0826423764229,0.187678575516,9.78508472443,9e-08,0.0,0.0,0.0,9e-08,0.0,0.0,0.0,9e-08
1560461790523683400,40909,1560461790520969792,base_link,-0.0082199779026,-0.00316694416088,-0.673758756384,-0.73889891293,1.0,0.0,0.0,0.0,1.0,0.0,0.0,0.0,1.0,-0.000618194171693,6.56063202769e-05,0.00490806484595,1.21846967915e-07,0.0,0.0,0.0,1.21846967915e-07,0.0,0.0,0.0,1.21846967915e-07,0.105418875813,0.143389284611,9.82065200806,9e-08,0.0,0.0,0.0,9e-08,0.0,0.0,0.0,9e-08
1560461790544333688,40910,1560461790540969792,base_link,-0.00821804622693,-0.00316880603084,-0.673771442585,-0.738887322547,1.0,0.0,0.0,0.0,1.0,0.0,0.0,0.0,1.0,0.000848629453685,-0.000899028964341,0.00392744410783,1.21846967915e-07,0.0,0.0,0.0,1.21846967915e-07,0.0,0.0,0.0,1.21846967915e-07,0.105527974665,0.142730697989,9.75787258148,9e-08,0.0,0.0,0.0,9e-08,0.0,0.0,0.0,9e-08
1560461790563683023,40911,1560461790557968000,base_link,-0.00822353914667,-0.00316532694021,-0.67378488743,-0.73887497352,1.0,0.0,0.0,0.0,1.0,0.0,0.0,0.0,1.0,-0.000101433717646,-0.000790817080997,0.00436382554471,1.21846967915e-07,0.0,0.0,0.0,1.21846967915e-07,0.0,0.0,0.0,1.21846967915e-07,0.0542193576694,0.186648577452,9.83484554291,9e-08,0.0,0.0,0.0,9e-08,0.0,0.0,0.0,9e-08
1560461790582207589,40912,1560461790578968000,base_link,-0.0082244406941,-0.00316217843892,-0.673799954928,-0.738861339014,1.0,0.0,0.0,0.0,1.0,0.0,0.0,0.0,1.0,-0.000420262804255,0.00070190615952,0.00457232864574,1.21846967915e-07,0.0,0.0,0.0,1.21846967915e-07,0.0,0.0,0.0,1.21846967915e-07,0.0253341719508,0.157088786364,9.78616809845,9e-08,0.0,0.0,0.0,9e-08,0.0,0.0,0.0,9e-08
1560461790606392808,40913,1560461790602968000,base_link,-0.00822767579399,-0.00316064501803,-0.673813302308,-0.738849087452,1.0,0.0,0.0,0.0,1.0,0.0,0.0,0.0,1.0,0.00128168612719,-0.000902577710804,0.00433306768537,1.21846967915e-07,0.0,0.0,0.0,1.21846967915e-07,0.0,0.0,0.0,1.21846967915e-07,0.0703499689698,0.163594767451,9.86242675781,9e-08,0.0,0.0,0.0,9e-08,0.0,0.0,0.0,9e-08
1560461790621940518,40914,1560461790618968000,base_link,-0.00822903288959,-0.00316356977882,-0.673829194304,-0.738834544156,1.0,0.0,0.0,0.0,1.0,0.0,0.0,0.0,1.0,0.000763058313169,0.000170554383658,0.00519624166191,1.21846967915e-07,0.0,0.0,0.0,1.21846967915e-07,0.0,0.0,0.0,1.21846967915e-07,0.0483018830419,0.171670347452,9.82790374756,9e-08,0.0,0.0,0.0,9e-08,0.0,0.0,0.0,9e-08
1560461790642581414,40915,1560461790638968000,base_link,-0.00822845040697,-0.00316522964026,-0.67384475176,-0.738820419693,1.0,0.0,0.0,0.0,1.0,0.0,0.0,0.0,1.0,-0.000430372223491,0.000909959315322,0.00404168153182,1.21846967915e-07,0.0,0.0,0.0,1.21846967915e-07,0.0,0.0,0.0,1.21846967915e-07,0.0767466127872,0.168625026941,9.8160943985,9e-08,0.0,0.0,0.0,9e-08,0.0,0.0,0.0,9e-08
1560461790662721731,40916,1560461790658965952,base_link,-0.00822743526061,-0.00316676767096,-0.673860973028,-0.738805547124,1.0,0.0,0.0,0.0,1.0,0.0,0.0,0.0,1.0,1.82430776476e-05,-0.00110808259342,0.00488359574229,1.21846967915e-07,0.0,0.0,0.0,1.21846967915e-07,0.0,0.0,0.0,1.21846967915e-07,0.0424888655543,0.17764750123,9.79441070557,9e-08,0.0,0.0,0.0,9e-08,0.0,0.0,0.0,9e-08
1560461790683629248,40917,1560461790678965952,base_link,-0.00823577622071,-0.00316561669979,-0.673878200552,-0.738789836886,1.0,0.0,0.0,0.0,1.0,0.0,0.0,0.0,1.0,0.000311690964736,0.00143867917359,0.00349351856858,1.21846967915e-07,0.0,0.0,0.0,1.21846967915e-07,0.0,0.0,0.0,1.21846967915e-07,0.0736998170614,0.19188863039,9.80281734467,9e-08,0.0,0.0,0.0,9e-08,0.0,0.0,0.0,9e-08
1560461790705507166,40918,1560461790702965952,base_link,-0.0082378988743,-0.00316442391105,-0.673898676018,-0.738771047294,1.0,0.0,0.0,0.0,1.0,0.0,0.0,0.0,1.0,-0.00200018752366,-0.000150194973685,0.00566195137799,1.21846967915e-07,0.0,0.0,0.0,1.21846967915e-07,0.0,0.0,0.0,1.21846967915e-07,0.0350301861763,0.186495810747,9.82376194,9e-08,0.0,0.0,0.0,9e-08,0.0,0.0,0.0,9e-08
1560461790725582016,40919,1560461790722965952,base_link,-0.00823172469026,-0.00316531525104,-0.673913042825,-0.73875811348,1.0,0.0,0.0,0.0,1.0,0.0,0.0,0.0,1.0,0.000114843060146,0.0005953196669,0.00476474501193,1.21846967915e-07,0.0,0.0,0.0,1.21846967915e-07,0.0,0.0,0.0,1.21846967915e-07,0.0746979340911,0.152708023787,9.77578258514,9e-08,0.0,0.0,0.0,9e-08,0.0,0.0,0.0,9e-08
1560461790742713702,40920,1560461790738965952,base_link,-0.00823916788957,-0.00316082496532,-0.673925144239,-0.73874702359,1.0,0.0,0.0,0.0,1.0,0.0,0.0,0.0,1.0,0.000642734172288,0.000587965012528,0.00435180077329,1.21846967915e-07,0.0,0.0,0.0,1.21846967915e-07,0.0,0.0,0.0,1.21846967915e-07,0.0404784455895,0.139630749822,9.83003044128,9e-08,0.0,0.0,0.0,9e-08,0.0,0.0,0.0,9e-08
1560461790765654613,40921,1560461790762963904,base_link,-0.00823313381088,-0.00316785212912,-0.673940870282,-0.73873273054,1.0,0.0,0.0,0.0,1.0,0.0,0.0,0.0,1.0,0.00182918796781,-0.000259109656326,0.005401651375,1.21846967915e-07,0.0,0.0,0.0,1.21846967915e-07,0.0,0.0,0.0,1.21846967915e-07,0.036685038358,0.154663532972,9.79565620422,9e-08,0.0,0.0,0.0,9e-08,0.0,0.0,0.0,9e-08
1560461790781887860,40922,1560461790778963904,base_link,-0.00823816459701,-0.00316718749308,-0.673949265407,-0.738725009765,1.0,0.0,0.0,0.0,1.0,0.0,0.0,0.0,1.0,0.000951864756644,0.0015427818289,0.0035935298074,1.21846967915e-07,0.0,0.0,0.0,1.21846967915e-07,0.0,0.0,0.0,1.21846967915e-07,0.0733210816979,0.15245296061,9.82915210724,9e-08,0.0,0.0,0.0,9e-08,0.0,0.0,0.0,9e-08
1560461790803996716,40923,1560461790798963904,base_link,-0.00824134931825,-0.00316466921888,-0.673966308539,-0.738709483919,1.0,0.0,0.0,0.0,1.0,0.0,0.0,0.0,1.0,-0.000103140133433,0.000376709271222,0.00510387588292,1.21846967915e-07,0.0,0.0,0.0,1.21846967915e-07,0.0,0.0,0.0,1.21846967915e-07,0.0709318518639,0.161191940308,9.86751365662,9e-08,0.0,0.0,0.0,9e-08,0.0,0.0,0.0,9e-08
1560461790822789587,40924,1560461790818963904,base_link,-0.00823966344431,-0.00316888126955,-0.673989960824,-0.738687686096,1.0,0.0,0.0,0.0,1.0,0.0,0.0,0.0,1.0,0.000124824000522,-0.00164186884649,0.00543206511065,1.21846967915e-07,0.0,0.0,0.0,1.21846967915e-07,0.0,0.0,0.0,1.21846967915e-07,0.0481500327587,0.166543632746,9.7987575531,9e-08,0.0,0.0,0.0,9e-08,0.0,0.0,0.0,9e-08
1560461790846276668,40925,1560461790842963904,base_link,-0.00824015027334,-0.00316451561337,-0.674017319397,-0.738662940628,1.0,0.0,0.0,0.0,1.0,0.0,0.0,0.0,1.0,0.000863801513333,0.000378165976144,0.00498019065708,1.21846967915e-07,0.0,0.0,0.0,1.21846967915e-07,0.0,0.0,0.0,1.21846967915e-07,0.0582680776715,0.15613335371,9.80819225311,9e-08,0.0,0.0,0.0,9e-08,0.0,0.0,0.0,9e-08
1560461790863237009,40926,1560461790858963904,base_link,-0.00823972798167,-0.00315766625658,-0.67403153869,-0.738649817153,1.0,0.0,0.0,0.0,1.0,0.0,0.0,0.0,1.0,-0.000191520361113,5.9747020714e-05,0.00552749633789,1.21846967915e-07,0.0,0.0,0.0,1.21846967915e-07,0.0,0.0,0.0,1.21846967915e-07,0.0678405761719,0.140877857804,9.81521606445,9e-08,0.0,0.0,0.0,9e-08,0.0,0.0,0.0,9e-08
1560461790883722717,40927,1560461790878959808,base_link,-0.00823789624012,-0.00315687435681,-0.674049511686,-0.73863353003,1.0,0.0,0.0,0.0,1.0,0.0,0.0,0.0,1.0,0.00096454465529,-0.000577985250857,0.00455732224509,1.21846967915e-07,0.0,0.0,0.0,1.21846967915e-07,0.0,0.0,0.0,1.21846967915e-07,0.0811524242163,0.160069137812,9.77658653259,9e-08,0.0,0.0,0.0,9e-08,0.0,0.0,0.0,9e-08
1560461790902450247,40928,1560461790898959808,base_link,-0.00824346522175,-0.00315352862144,-0.674059076387,-0.738624808266,1.0,0.0,0.0,0.0,1.0,0.0,0.0,0.0,1.0,0.000519684399478,-0.000808273558505,0.00285389251076,1.21846967915e-07,0.0,0.0,0.0,1.21846967915e-07,0.0,0.0,0.0,1.21846967915e-07,0.0780349820852,0.176445186138,9.80109882355,9e-08,0.0,0.0,0.0,9e-08,0.0,0.0,0.0,9e-08
1560461790923062942,40929,1560461790918959808,base_link,-0.00823472452513,-0.00315571021476,-0.674071625611,-0.738613439154,1.0,0.0,0.0,0.0,1.0,0.0,0.0,0.0,1.0,-0.000438321527326,0.000793281942606,0.00328655308113,1.21846967915e-07,0.0,0.0,0.0,1.21846967915e-07,0.0,0.0,0.0,1.21846967915e-07,0.0704334825277,0.144518703222,9.76056861877,9e-08,0.0,0.0,0.0,9e-08,0.0,0.0,0.0,9e-08
1560461790942404602,40930,1560461790938959808,base_link,-0.00823313199988,-0.00315970511038,-0.674089598608,-0.73859689915,1.0,0.0,0.0,0.0,1.0,0.0,0.0,0.0,1.0,0.000562822388019,0.0010217531817,0.00603709975258,1.21846967915e-07,0.0,0.0,0.0,1.21846967915e-07,0.0,0.0,0.0,1.21846967915e-07,0.0817445740104,0.131844550371,9.81809139252,9e-08,0.0,0.0,0.0,9e-08,0.0,0.0,0.0,9e-08
1560461790964024068,40931,1560461790958957760,base_link,-0.00823001708436,-0.00315083715004,-0.674108635812,-0.738579716407,1.0,0.0,0.0,0.0,1.0,0.0,0.0,0.0,1.0,-0.000418371811975,-4.80473972857e-05,0.00466892076656,1.21846967915e-07,0.0,0.0,0.0,1.21846967915e-07,0.0,0.0,0.0,1.21846967915e-07,0.0797520428896,0.178478002548,9.81328010559,9e-08,0.0,0.0,0.0,9e-08,0.0,0.0,0.0,9e-08
1560461790983880418,40932,1560461790978957760,base_link,-0.00823302482176,-0.0031490556225,-0.674121643383,-0.73856772036,1.0,0.0,0.0,0.0,1.0,0.0,0.0,0.0,1.0,-0.000300245272228,-0.00100338482298,0.0055250171572,1.21846967915e-07,0.0,0.0,0.0,1.21846967915e-07,0.0,0.0,0.0,1.21846967915e-07,0.0787911340594,0.142761901021,9.80977153778,9e-08,0.0,0.0,0.0,9e-08,0.0,0.0,0.0,9e-08
1560461791002206567,40933,1560461790998957760,base_link,-0.00823610269415,-0.00314612131281,-0.674144278875,-0.738547192211,1.0,0.0,0.0,0.0,1.0,0.0,0.0,0.0,1.0,0.00011990875646,-0.00132422661409,0.00509250350296,1.21846967915e-07,0.0,0.0,0.0,1.21846967915e-07,0.0,0.0,0.0,1.21846967915e-07,0.0791992768645,0.181160867214,9.77141094208,9e-08,0.0,0.0,0.0,9e-08,0.0,0.0,0.0,9e-08
1560461791023117908,40934,1560461791018957760,base_link,-0.00824480223174,-0.00314407570894,-0.674160710878,-0.738532024614,1.0,0.0,0.0,0.0,1.0,0.0,0.0,0.0,1.0,-0.000305612164084,-0.000577769475058,0.0053056711331,1.21846967915e-07,0.0,0.0,0.0,1.21846967915e-07,0.0,0.0,0.0,1.21846967915e-07,0.0845344886184,0.17133551836,9.81280994415,9e-08,0.0,0.0,0.0,9e-08,0.0,0.0,0.0,9e-08
1560461791042655824,40935,1560461791038957760,base_link,-0.00824690447045,-0.00314203800759,-0.67417568618,-0.738518398011,1.0,0.0,0.0,0.0,1.0,0.0,0.0,0.0,1.0,-0.000952776055783,-5.54746948183e-05,0.00445839297026,1.21846967915e-07,0.0,0.0,0.0,1.21846967915e-07,0.0,0.0,0.0,1.21846967915e-07,0.028435010463,0.143504425883,9.7563829422,9e-08,0.0,0.0,0.0,9e-08,0.0,0.0,0.0,9e-08
1560461791063592543,40936,1560461791058954688,base_link,-0.00824329531727,-0.00313657505163,-0.674192473796,-0.738503043387,1.0,0.0,0.0,0.0,1.0,0.0,0.0,0.0,1.0,0.000429319799878,-0.000474994827528,0.00454585812986,1.21846967915e-07,0.0,0.0,0.0,1.21846967915e-07,0.0,0.0,0.0,1.21846967915e-07,0.0622662305832,0.159037590027,9.83069992065,9e-08,0.0,0.0,0.0,9e-08,0.0,0.0,0.0,9e-08
1560461791084285736,40937,1560461791078954688,base_link,-0.00824642011096,-0.00313269424884,-0.674203777054,-0.738492835947,1.0,0.0,0.0,0.0,1.0,0.0,0.0,0.0,1.0,-0.00169243337587,-0.000901947380044,0.00511309504509,1.21846967915e-07,0.0,0.0,0.0,1.21846967915e-07,0.0,0.0,0.0,1.21846967915e-07,0.0597698241472,0.16669665277,9.77809619904,9e-08,0.0,0.0,0.0,9e-08,0.0,0.0,0.0,9e-08
1560461791103255886,40938,1560461791098954688,base_link,-0.00824015175506,-0.00313296853263,-0.674218157032,-0.738479720375,1.0,0.0,0.0,0.0,1.0,0.0,0.0,0.0,1.0,-0.000634571304545,0.000160219846293,0.00423293886706,1.21846967915e-07,0.0,0.0,0.0,1.21846967915e-07,0.0,0.0,0.0,1.21846967915e-07,0.0551625452936,0.144713550806,9.83874511719,9e-08,0.0,0.0,0.0,9e-08,0.0,0.0,0.0,9e-08
1560461791122525758,40939,1560461791118954688,base_link,-0.00823697427781,-0.00313113053491,-0.674233237702,-0.738465988405,1.0,0.0,0.0,0.0,1.0,0.0,0.0,0.0,1.0,-0.000855821941514,0.000481511699036,0.0039074649103,1.21846967915e-07,0.0,0.0,0.0,1.21846967915e-07,0.0,0.0,0.0,1.21846967915e-07,0.0597595274448,0.18093380332,9.7496843338,9e-08,0.0,0.0,0.0,9e-08,0.0,0.0,0.0,9e-08
1560461791142559884,40940,1560461791138954688,base_link,-0.00823889163015,-0.00312679500714,-0.674245855414,-0.738454382216,1.0,0.0,0.0,0.0,1.0,0.0,0.0,0.0,1.0,0.000107072235551,-0.00132623896934,0.00412053056061,1.21846967915e-07,0.0,0.0,0.0,1.21846967915e-07,0.0,0.0,0.0,1.21846967915e-07,0.0574562624097,0.178380966187,9.8250541687,9e-08,0.0,0.0,0.0,9e-08,0.0,0.0,0.0,9e-08
1560461791164057529,40941,1560461791158951872,base_link,-0.00823599485749,-0.00312963777914,-0.674258122781,-0.738443294961,1.0,0.0,0.0,0.0,1.0,0.0,0.0,0.0,1.0,-0.000318774895277,0.000374817172997,0.00411368487403,1.21846967915e-07,0.0,0.0,0.0,1.21846967915e-07,0.0,0.0,0.0,1.21846967915e-07,0.0629278123379,0.176882743835,9.80954837799,9e-08,0.0,0.0,0.0,9e-08,0.0,0.0,0.0,9e-08
1560461791183664203,40942,1560461791178951872,base_link,-0.00824437878762,-0.00312689625836,-0.674276675297,-0.738426175438,1.0,0.0,0.0,0.0,1.0,0.0,0.0,0.0,1.0,-0.000724657962564,0.000914059462957,0.00560478959233,1.21846967915e-07,0.0,0.0,0.0,1.21846967915e-07,0.0,0.0,0.0,1.21846967915e-07,0.0197347030044,0.138593360782,9.85750102997,9e-08,0.0,0.0,0.0,9e-08,0.0,0.0,0.0,9e-08
1560461791202704194,40943,1560461791198951872,base_link,-0.00824353338111,-0.00312183320354,-0.674291218594,-0.73841298084,1.0,0.0,0.0,0.0,1.0,0.0,0.0,0.0,1.0,-0.000954552553594,0.000268620322458,0.00432811584324,1.21846967915e-07,0.0,0.0,0.0,1.21846967915e-07,0.0,0.0,0.0,1.21846967915e-07,0.0426285751164,0.16404312849,9.82284927368,9e-08,0.0,0.0,0.0,9e-08,0.0,0.0,0.0,9e-08
1560461791223861333,40944,1560461791218951872,base_link,-0.0082411754625,-0.00312515786549,-0.674309686816,-0.738396114198,1.0,0.0,0.0,0.0,1.0,0.0,0.0,0.0,1.0,0.000212777071283,0.000694169080816,0.00463491352275,1.21846967915e-07,0.0,0.0,0.0,1.21846967915e-07,0.0,0.0,0.0,1.21846967915e-07,0.0521034002304,0.183851718903,9.77648162842,9e-08,0.0,0.0,0.0,9e-08,0.0,0.0,0.0,9e-08
1560461791242623398,40945,1560461791238951872,base_link,-0.0082460607103,-0.00312588473399,-0.674324245918,-0.738382819502,1.0,0.0,0.0,0.0,1.0,0.0,0.0,0.0,1.0,1.02530284494e-05,0.00058866397012,0.00485208118334,1.21846967915e-07,0.0,0.0,0.0,1.21846967915e-07,0.0,0.0,0.0,1.21846967915e-07,0.0638970807195,0.190639197826,9.8044424057,9e-08,0.0,0.0,0.0,9e-08,0.0,0.0,0.0,9e-08
1560461791263139827,40946,1560461791258949568,base_link,-0.00824156943675,-0.00312236942341,-0.674338783947,-0.738369545878,1.0,0.0,0.0,0.0,1.0,0.0,0.0,0.0,1.0,-0.00117174373008,0.00101253937464,0.00400843378156,1.21846967915e-07,0.0,0.0,0.0,1.21846967915e-07,0.0,0.0,0.0,1.21846967915e-07,0.0775844305754,0.157814502716,9.80159759521,9e-08,0.0,0.0,0.0,9e-08,0.0,0.0,0.0,9e-08
1560461791282057982,40947,1560461791278949568,base_link,-0.00823700588795,-0.00311854311518,-0.674351198828,-0.738358311109,1.0,0.0,0.0,0.0,1.0,0.0,0.0,0.0,1.0,0.000651643029414,-0.000684969651047,0.00505497772247,1.21846967915e-07,0.0,0.0,0.0,1.21846967915e-07,0.0,0.0,0.0,1.21846967915e-07,0.0358709841967,0.183090507984,9.81767940521,9e-08,0.0,0.0,0.0,9e-08,0.0,0.0,0.0,9e-08
1560461791303781488,40948,1560461791298949568,base_link,-0.00823695386293,-0.00311592013241,-0.674368710844,-0.73834231638,1.0,0.0,0.0,0.0,1.0,0.0,0.0,0.0,1.0,-0.00169670186006,5.7277851738e-05,0.00455033406615,1.21846967915e-07,0.0,0.0,0.0,1.21846967915e-07,0.0,0.0,0.0,1.21846967915e-07,0.0823514312506,0.173979789019,9.80195331573,9e-08,0.0,0.0,0.0,9e-08,0.0,0.0,0.0,9e-08
1560461791322401860,40949,1560461791318949568,base_link,-0.00823487533183,-0.00311776422166,-0.674388498789,-0.738324298602,1.0,0.0,0.0,0.0,1.0,0.0,0.0,0.0,1.0,-0.000951929250732,0.00101402367,0.00453398143873,1.21846967915e-07,0.0,0.0,0.0,1.21846967915e-07,0.0,0.0,0.0,1.21846967915e-07,0.0850316658616,0.146997615695,9.82460021973,9e-08,0.0,0.0,0.0,9e-08,0.0,0.0,0.0,9e-08
1560461791343694722,40950,1560461791338949568,base_link,-0.00823248695553,-0.00312112197547,-0.674402012122,-0.738311965381,1.0,0.0,0.0,0.0,1.0,0.0,0.0,0.0,1.0,0.00114802492317,-5.88174443692e-05,0.00238061300479,1.21846967915e-07,0.0,0.0,0.0,1.21846967915e-07,0.0,0.0,0.0,1.21846967915e-07,0.0774957537651,0.148308768868,9.79401874542,9e-08,0.0,0.0,0.0,9e-08,0.0,0.0,0.0,9e-08
1560461791363290141,40951,1560461791359947520,base_link,-0.0082378205075,-0.00311664848263,-0.674411950876,-0.73830278527,1.0,0.0,0.0,0.0,1.0,0.0,0.0,0.0,1.0,0.00189354817849,-7.05504789948e-05,0.00495053222403,1.21846967915e-07,0.0,0.0,0.0,1.21846967915e-07,0.0,0.0,0.0,1.21846967915e-07,0.0956593155861,0.170847654343,9.80390739441,9e-08,0.0,0.0,0.0,9e-08,0.0,0.0,0.0,9e-08
1560461791383943857,40952,1560461791380947520,base_link,-0.00822423094767,-0.00311665885471,-0.674431322621,-0.738285267987,1.0,0.0,0.0,0.0,1.0,0.0,0.0,0.0,1.0,-0.000425670092227,0.00133197195828,0.00409402325749,1.21846967915e-07,0.0,0.0,0.0,1.21846967915e-07,0.0,0.0,0.0,1.21846967915e-07,0.0525763109326,0.18244536221,9.78434371948,9e-08,0.0,0.0,0.0,9e-08,0.0,0.0,0.0,9e-08
1560461791404655632,40953,1560461791400947520,base_link,-0.00822292357219,-0.00311720626983,-0.674443384522,-0.738274301903,1.0,0.0,0.0,0.0,1.0,0.0,0.0,0.0,1.0,0.000430053129094,-0.000480984686874,0.00451514171436,1.21846967915e-07,0.0,0.0,0.0,1.21846967915e-07,0.0,0.0,0.0,1.21846967915e-07,0.0537133440375,0.139400929213,9.83097362518,9e-08,0.0,0.0,0.0,9e-08,0.0,0.0,0.0,9e-08
1560461791423409144,40954,1560461791420947520,base_link,-0.00823045402864,-0.00311074002131,-0.674462503387,-0.738256700326,1.0,0.0,0.0,0.0,1.0,0.0,0.0,0.0,1.0,-0.00116463843733,-0.00185431330465,0.00464815692976,1.21846967915e-07,0.0,0.0,0.0,1.21846967915e-07,0.0,0.0,0.0,1.21846967915e-07,0.0808486789465,0.18596097827,9.83276176453,9e-08,0.0,0.0,0.0,9e-08,0.0,0.0,0.0,9e-08
1560461791444671394,40955,1560461791440947520,base_link,-0.00822261109282,-0.00310847825019,-0.674476983463,-0.738243653242,1.0,0.0,0.0,0.0,1.0,0.0,0.0,0.0,1.0,-0.000237819942413,0.00206156214699,0.00238628080115,1.21846967915e-07,0.0,0.0,0.0,1.21846967915e-07,0.0,0.0,0.0,1.21846967915e-07,0.059279832989,0.177604168653,9.7825012207,9e-08,0.0,0.0,0.0,9e-08,0.0,0.0,0.0,9e-08
1560461791464163173,40956,1560461791460945472,base_link,-0.00822145699357,-0.00310601825718,-0.67448599762,-0.738235313434,1.0,0.0,0.0,0.0,1.0,0.0,0.0,0.0,1.0,0.000944970932323,-0.000907667039428,0.00312296231277,1.21846967915e-07,0.0,0.0,0.0,1.21846967915e-07,0.0,0.0,0.0,1.21846967915e-07,0.0878886282444,0.149350643158,9.82469177246,9e-08,0.0,0.0,0.0,9e-08,0.0,0.0,0.0,9e-08
1560461791484535044,40957,1560461791480945472,base_link,-0.00822533170482,-0.00310761473371,-0.674497092778,-0.738225229801,1.0,0.0,0.0,0.0,1.0,0.0,0.0,0.0,1.0,-0.000316542718792,0.000269587850198,0.00451578991488,1.21846967915e-07,0.0,0.0,0.0,1.21846967915e-07,0.0,0.0,0.0,1.21846967915e-07,0.0721298679709,0.15388199687,9.78530406952,9e-08,0.0,0.0,0.0,9e-08,0.0,0.0,0.0,9e-08
1560461791503152359,40958,1560461791500945472,base_link,-0.00822044925584,-0.00311327953356,-0.674515597879,-0.73820832628,1.0,0.0,0.0,0.0,1.0,0.0,0.0,0.0,1.0,-0.000419076910475,5.66327944398e-05,0.00462190574035,1.21846967915e-07,0.0,0.0,0.0,1.21846967915e-07,0.0,0.0,0.0,1.21846967915e-07,0.0795182287693,0.172545999289,9.80491542816,9e-08,0.0,0.0,0.0,9e-08,0.0,0.0,0.0,9e-08
1560461791524308576,40959,1560461791520945472,base_link,-0.00822371184996,-0.00311280916815,-0.674528376277,-0.738196559407,1.0,0.0,0.0,0.0,1.0,0.0,0.0,0.0,1.0,-0.00042154386756,0.000161935575306,0.00440823240206,1.21846967915e-07,0.0,0.0,0.0,1.21846967915e-07,0.0,0.0,0.0,1.21846967915e-07,0.0398868843913,0.175335437059,9.79077339172,9e-08,0.0,0.0,0.0,9e-08,0.0,0.0,0.0,9e-08
1560461791543742922,40960,1560461791540945472,base_link,-0.00822258557422,-0.00311782085649,-0.674543923195,-0.738182276894,1.0,0.0,0.0,0.0,1.0,0.0,0.0,0.0,1.0,0.000125915685203,0.000377316144295,0.00558433961123,1.21846967915e-07,0.0,0.0,0.0,1.21846967915e-07,0.0,0.0,0.0,1.21846967915e-07,0.0700306370854,0.159013167024,9.79074382782,9e-08,0.0,0.0,0.0,9e-08,0.0,0.0,0.0,9e-08
1560461791563752021,40961,1560461791560943424,base_link,-0.00822103338481,-0.00312232464238,-0.67455882474,-0.738168724048,1.0,0.0,0.0,0.0,1.0,0.0,0.0,0.0,1.0,-0.00020984292496,0.000160422641784,0.00431032665074,1.21846967915e-07,0.0,0.0,0.0,1.21846967915e-07,0.0,0.0,0.0,1.21846967915e-07,0.0410957597196,0.174297660589,9.79845237732,9e-08,0.0,0.0,0.0,9e-08,0.0,0.0,0.0,9e-08
1560461791583125452,40962,1560461791580943424,base_link,-0.00822136545588,-0.00312189905799,-0.674573771067,-0.738155210715,1.0,0.0,0.0,0.0,1.0,0.0,0.0,0.0,1.0,-0.000193322193809,-0.000367637781892,0.00558792520314,1.21846967915e-07,0.0,0.0,0.0,1.21846967915e-07,0.0,0.0,0.0,1.21846967915e-07,0.0652821660042,0.159020274878,9.79269504547,9e-08,0.0,0.0,0.0,9e-08,0.0,0.0,0.0,9e-08
1560461791603733087,40963,1560461791600943424,base_link,-0.00822486611385,-0.00312586366057,-0.674582550782,-0.738147021055,1.0,0.0,0.0,0.0,1.0,0.0,0.0,0.0,1.0,0.000736033485737,4.77497233078e-05,0.00344632170163,1.21846967915e-07,0.0,0.0,0.0,1.21846967915e-07,0.0,0.0,0.0,1.21846967915e-07,0.0825918391347,0.156735807657,9.80522155762,9e-08,0.0,0.0,0.0,9e-08,0.0,0.0,0.0,9e-08
1560461791624435926,40964,1560461791620943424,base_link,-0.008223052153,-0.00312527129978,-0.674594512584,-0.738136239364,1.0,0.0,0.0,0.0,1.0,0.0,0.0,0.0,1.0,0.000746240781154,0.000157250091434,0.00429098494351,1.21846967915e-07,0.0,0.0,0.0,1.21846967915e-07,0.0,0.0,0.0,1.21846967915e-07,0.0774505287409,0.147660240531,9.8109331131,9e-08,0.0,0.0,0.0,9e-08,0.0,0.0,0.0,9e-08
1560461791644303373,40965,1560461791640943424,base_link,-0.00823063331738,-0.00313092556293,-0.674611458252,-0.738120473809,1.0,0.0,0.0,0.0,1.0,0.0,0.0,0.0,1.0,0.000858271727338,5.08932862431e-05,0.00525013031438,1.21846967915e-07,0.0,0.0,0.0,1.21846967915e-07,0.0,0.0,0.0,1.21846967915e-07,0.0891830995679,0.127610072494,9.80613613129,9e-08,0.0,0.0,0.0,9e-08,0.0,0.0,0.0,9e-08
1560461791664483446,40966,1560461791660941376,base_link,-0.00822882660052,-0.00313144680091,-0.674628954462,-0.738104494885,1.0,0.0,0.0,0.0,1.0,0.0,0.0,0.0,1.0,-0.00116672483273,0.000264841248281,0.00442035216838,1.21846967915e-07,0.0,0.0,0.0,1.21846967915e-07,0.0,0.0,0.0,1.21846967915e-07,0.038014806807,0.178907975554,9.78447628021,9e-08,0.0,0.0,0.0,9e-08,0.0,0.0,0.0,9e-08
1560461791683736078,40967,1560461791680941376,base_link,-0.00822953074924,-0.00313232052483,-0.674643584687,-0.738091213359,1.0,0.0,0.0,0.0,1.0,0.0,0.0,0.0,1.0,-0.000843157526106,-0.00111650244799,0.00474112713709,1.21846967915e-07,0.0,0.0,0.0,1.21846967915e-07,0.0,0.0,0.0,1.21846967915e-07,0.0679607689381,0.144843146205,9.82017326355,9e-08,0.0,0.0,0.0,9e-08,0.0,0.0,0.0,9e-08
1560461791703705335,40968,1560461791700941376,base_link,-0.00822966509232,-0.00313347297772,-0.6746555781,-0.738080231471,1.0,0.0,0.0,0.0,1.0,0.0,0.0,0.0,1.0,0.000330331502482,0.000581188476644,0.00460672238842,1.21846967915e-07,0.0,0.0,0.0,1.21846967915e-07,0.0,0.0,0.0,1.21846967915e-07,0.0441400408745,0.176430389285,9.77716732025,9e-08,0.0,0.0,0.0,9e-08,0.0,0.0,0.0,9e-08
1560461791725843703,40969,1560461791721941376,base_link,-0.0082295187308,-0.00313060715666,-0.674670861601,-0.738066212376,1.0,0.0,0.0,0.0,1.0,0.0,0.0,0.0,1.0,-0.00128396553919,0.000793458195403,0.00356277357787,1.21846967915e-07,0.0,0.0,0.0,1.21846967915e-07,0.0,0.0,0.0,1.21846967915e-07,0.0568198487163,0.142058506608,9.83987522125,9e-08,0.0,0.0,0.0,9e-08,0.0,0.0,0.0,9e-08
1560461791744165712,40970,1560461791741941376,base_link,-0.00823893081354,-0.00313437123243,-0.674674899795,-0.738062342768,1.0,0.0,0.0,0.0,1.0,0.0,0.0,0.0,1.0,0.000527180382051,-0.0013369458029,0.00312222959474,1.21846967915e-07,0.0,0.0,0.0,1.21846967915e-07,0.0,0.0,0.0,1.21846967915e-07,0.0694214329123,0.168894305825,9.78303909302,9e-08,0.0,0.0,0.0,9e-08,0.0,0.0,0.0,9e-08
1560461791765221827,40971,1560461791761939072,base_link,-0.00824479070721,-0.00312925549406,-0.674688305127,-0.738050117548,1.0,0.0,0.0,0.0,1.0,0.0,0.0,0.0,1.0,0.000328486377839,-0.000903165666386,0.00482213357463,1.21846967915e-07,0.0,0.0,0.0,1.21846967915e-07,0.0,0.0,0.0,1.21846967915e-07,0.0566184744239,0.183338612318,9.82588863373,9e-08,0.0,0.0,0.0,9e-08,0.0,0.0,0.0,9e-08
1560461791783996967,40972,1560461791781939072,base_link,-0.00824493048328,-0.00312790004482,-0.674702353199,-0.738037333882,1.0,0.0,0.0,0.0,1.0,0.0,0.0,0.0,1.0,-0.000739702023566,0.00122668454424,0.00503159547225,1.21846967915e-07,0.0,0.0,0.0,1.21846967915e-07,0.0,0.0,0.0,1.21846967915e-07,0.0583917610347,0.152781099081,9.81892204285,9e-08,0.0,0.0,0.0,9e-08,0.0,0.0,0.0,9e-08
1560461791804821418,40973,1560461791801939072,base_link,-0.00825226057757,-0.00312943132544,-0.674717215231,-0.738023651961,1.0,0.0,0.0,0.0,1.0,0.0,0.0,0.0,1.0,0.00106605887413,-0.000266553950496,0.00437932321802,1.21846967915e-07,0.0,0.0,0.0,1.21846967915e-07,0.0,0.0,0.0,1.21846967915e-07,0.0716644302011,0.188530772924,9.82706546783,9e-08,0.0,0.0,0.0,9e-08,0.0,0.0,0.0,9e-08
1560461791822011638,40974,1560461791817939072,base_link,-0.00825542439002,-0.00312614370662,-0.67472744111,-0.738014184725,1.0,0.0,0.0,0.0,1.0,0.0,0.0,0.0,1.0,2.08238889172e-05,0.000272581004538,0.00566732836887,1.21846967915e-07,0.0,0.0,0.0,1.21846967915e-07,0.0,0.0,0.0,1.21846967915e-07,0.0545533820987,0.187066033483,9.81512355804,9e-08,0.0,0.0,0.0,9e-08,0.0,0.0,0.0,9e-08
1560461791844695011,40975,1560461791841939072,base_link,-0.00824758408838,-0.00312209464571,-0.674743504328,-0.737999638794,1.0,0.0,0.0,0.0,1.0,0.0,0.0,0.0,1.0,-0.000413428992033,5.42162451893e-05,0.00503671495244,1.21846967915e-07,0.0,0.0,0.0,1.21846967915e-07,0.0,0.0,0.0,1.21846967915e-07,0.0426355749369,0.144225552678,9.8167848587,9e-08,0.0,0.0,0.0,9e-08,0.0,0.0,0.0,9e-08
1560461791864982712,40976,1560461791861934208,base_link,-0.00824770575448,-0.003118856747,-0.674754175383,-0.73798989497,1.0,0.0,0.0,0.0,1.0,0.0,0.0,0.0,1.0,-0.000961462501436,0.000368600478396,0.00418456364423,1.21846967915e-07,0.0,0.0,0.0,1.21846967915e-07,0.0,0.0,0.0,1.21846967915e-07,0.0625509396195,0.193104058504,9.78332042694,9e-08,0.0,0.0,0.0,9e-08,0.0,0.0,0.0,9e-08
1560461791882696452,40977,1560461791877934208,base_link,-0.00824568846801,-0.00311631163712,-0.674768879365,-0.737976455393,1.0,0.0,0.0,0.0,1.0,0.0,0.0,0.0,1.0,0.00075765355723,0.00101248151623,0.00501110265031,1.21846967915e-07,0.0,0.0,0.0,1.21846967915e-07,0.0,0.0,0.0,1.21846967915e-07,0.0708285868168,0.167367607355,9.78996944427,9e-08,0.0,0.0,0.0,9e-08,0.0,0.0,0.0,9e-08
1560461791904384741,40978,1560461791901934208,base_link,-0.00824268040134,-0.00311425154526,-0.674783148707,-0.737963450456,1.0,0.0,0.0,0.0,1.0,0.0,0.0,0.0,1.0,-6.05102104601e-06,-0.000162250245921,0.00363407353871,1.21846967915e-07,0.0,0.0,0.0,1.21846967915e-07,0.0,0.0,0.0,1.21846967915e-07,0.0765366256237,0.182064175606,9.7912569046,9e-08,0.0,0.0,0.0,9e-08,0.0,0.0,0.0,9e-08
1560461791925595694,40979,1560461791921934208,base_link,-0.00825362310615,-0.0031129301757,-0.674801224437,-0.73794680772,1.0,0.0,0.0,0.0,1.0,0.0,0.0,0.0,1.0,0.000113940528536,0.00112032541074,0.00501218345016,1.21846967915e-07,0.0,0.0,0.0,1.21846967915e-07,0.0,0.0,0.0,1.21846967915e-07,0.0740704908967,0.145842403173,9.85226535797,9e-08,0.0,0.0,0.0,9e-08,0.0,0.0,0.0,9e-08
1560461791944457554,40980,1560461791941934208,base_link,-0.00824163216312,-0.00311022899077,-0.674820037737,-0.737929848881,1.0,0.0,0.0,0.0,1.0,0.0,0.0,0.0,1.0,-0.000932484166697,0.000700138276443,0.00587689783424,1.21846967915e-07,0.0,0.0,0.0,1.21846967915e-07,0.0,0.0,0.0,1.21846967915e-07,0.0758635476232,0.17319393158,9.82153320312,9e-08,0.0,0.0,0.0,9e-08,0.0,0.0,0.0,9e-08
1560461791962808194,40981,1560461791957932160,base_link,-0.00823304902327,-0.00310380785254,-0.674830371617,-0.737920442232,1.0,0.0,0.0,0.0,1.0,0.0,0.0,0.0,1.0,2.52564495895e-06,0.000372748705558,0.00437122117728,1.21846967915e-07,0.0,0.0,0.0,1.21846967915e-07,0.0,0.0,0.0,1.21846967915e-07,0.0743912830949,0.170273810625,9.80996227264,9e-08,0.0,0.0,0.0,9e-08,0.0,0.0,0.0,9e-08
1560461791984347385,40982,1560461791981932160,base_link,-0.00824662771712,-0.00311559234188,-0.674845349553,-0.737906644407,1.0,0.0,0.0,0.0,1.0,0.0,0.0,0.0,1.0,0.0027810097672,0.000590549083427,0.00486283004284,1.21846967915e-07,0.0,0.0,0.0,1.21846967915e-07,0.0,0.0,0.0,1.21846967915e-07,0.0766979530454,0.1626303792,9.80240726471,9e-08,0.0,0.0,0.0,9e-08,0.0,0.0,0.0,9e-08
1560461792004660089,40983,1560461792001932160,base_link,-0.00824058952252,-0.00311898977299,-0.674860619883,-0.737892722776,1.0,0.0,0.0,0.0,1.0,0.0,0.0,0.0,1.0,-0.00030955762486,0.000911406590603,0.00521947583184,1.21846967915e-07,0.0,0.0,0.0,1.21846967915e-07,0.0,0.0,0.0,1.21846967915e-07,0.0530528277159,0.127089709044,9.81885719299,9e-08,0.0,0.0,0.0,9e-08,0.0,0.0,0.0,9e-08
1560461792024830354,40984,1560461792021932160,base_link,-0.00823752333929,-0.003115631196,-0.674872096997,-0.737882172893,1.0,0.0,0.0,0.0,1.0,0.0,0.0,0.0,1.0,0.00031935077277,5.69469993934e-05,0.00393668981269,1.21846967915e-07,0.0,0.0,0.0,1.21846967915e-07,0.0,0.0,0.0,1.21846967915e-07,0.0826147347689,0.149787306786,9.81705570221,9e-08,0.0,0.0,0.0,9e-08,0.0,0.0,0.0,9e-08
1560461792044967679,40985,1560461792041932160,base_link,-0.00823045913236,-0.00311813827494,-0.674880460512,-0.737874652315,1.0,0.0,0.0,0.0,1.0,0.0,0.0,0.0,1.0,-0.000840269261971,-0.000373489689082,0.00502464780584,1.21846967915e-07,0.0,0.0,0.0,1.21846967915e-07,0.0,0.0,0.0,1.21846967915e-07,0.0958377942443,0.143943190575,9.80599975586,9e-08,0.0,0.0,0.0,9e-08,0.0,0.0,0.0,9e-08
1560461792064688407,40986,1560461792061930112,base_link,-0.00822514187936,-0.00311476405752,-0.674891726892,-0.73786439746,1.0,0.0,0.0,0.0,1.0,0.0,0.0,0.0,1.0,0.00020638735441,-0.000271416967735,0.00308713805862,1.21846967915e-07,0.0,0.0,0.0,1.21846967915e-07,0.0,0.0,0.0,1.21846967915e-07,0.0689956024289,0.13950817287,9.75818157196,9e-08,0.0,0.0,0.0,9e-08,0.0,0.0,0.0,9e-08
1560461792084614418,40987,1560461792081930112,base_link,-0.00822445765162,-0.00310875615598,-0.67489963206,-0.737857250935,1.0,0.0,0.0,0.0,1.0,0.0,0.0,0.0,1.0,-0.000334429816576,-0.00229074573144,0.00300231622532,1.21846967915e-07,0.0,0.0,0.0,1.21846967915e-07,0.0,0.0,0.0,1.21846967915e-07,0.0680304542184,0.140718206763,9.79958343506,9e-08,0.0,0.0,0.0,9e-08,0.0,0.0,0.0,9e-08
1560461792102155860,40988,1560461792097930112,base_link,-0.00822933911278,-0.00310381937707,-0.674909918525,-0.737847723113,1.0,0.0,0.0,0.0,1.0,0.0,0.0,0.0,1.0,0.000421727163484,-0.000798312481493,0.00393609842286,1.21846967915e-07,0.0,0.0,0.0,1.21846967915e-07,0.0,0.0,0.0,1.21846967915e-07,0.0757930502295,0.152108579874,9.807554245,9e-08,0.0,0.0,0.0,9e-08,0.0,0.0,0.0,9e-08
1560461792123234763,40989,1560461792117930112,base_link,-0.00822806548771,-0.00310013547909,-0.674921980426,-0.737836841323,1.0,0.0,0.0,0.0,1.0,0.0,0.0,0.0,1.0,0.000105802362668,0.00015817116946,0.00403880141675,1.21846967915e-07,0.0,0.0,0.0,1.21846967915e-07,0.0,0.0,0.0,1.21846967915e-07,0.0404232852161,0.167015939951,9.83435535431,9e-08,0.0,0.0,0.0,9e-08,0.0,0.0,0.0,9e-08
1560461792144246410,40990,1560461792141930112,base_link,-0.00823427473924,-0.00310675335749,-0.674933944863,-0.73782563553,1.0,0.0,0.0,0.0,1.0,0.0,0.0,0.0,1.0,0.00288554909639,-0.000687974272296,0.00474827829748,1.21846967915e-07,0.0,0.0,0.0,1.21846967915e-07,0.0,0.0,0.0,1.21846967915e-07,0.0796769633889,0.176058843732,9.74192523956,9e-08,0.0,0.0,0.0,9e-08,0.0,0.0,0.0,9e-08
1560461792163285530,40991,1560461792157928320,base_link,-0.0082418927821,-0.0031054929033,-0.674945614272,-0.737814977646,1.0,0.0,0.0,0.0,1.0,0.0,0.0,0.0,1.0,0.000331481132889,-0.0013202726841,0.00500288698822,1.21846967915e-07,0.0,0.0,0.0,1.21846967915e-07,0.0,0.0,0.0,1.21846967915e-07,0.0479740053415,0.156269907951,9.78903484344,9e-08,0.0,0.0,0.0,9e-08,0.0,0.0,0.0,9e-08
1560461792184627530,40992,1560461792181928320,base_link,-0.00824682149384,-0.00310227245602,-0.67495896692,-0.737802636522,1.0,0.0,0.0,0.0,1.0,0.0,0.0,0.0,1.0,0.000960503937677,-0.00111766706686,0.00424093520269,1.21846967915e-07,0.0,0.0,0.0,1.21846967915e-07,0.0,0.0,0.0,1.21846967915e-07,0.0641145631671,0.159129455686,9.78835105896,9e-08,0.0,0.0,0.0,9e-08,0.0,0.0,0.0,9e-08
1560461792202433929,40993,1560461792198928320,base_link,-0.0082484477695,-0.00310245454358,-0.674972501327,-0.737790282227,1.0,0.0,0.0,0.0,1.0,0.0,0.0,0.0,1.0,0.00182093237527,-4.87054931e-05,0.0048582162708,1.21846967915e-07,0.0,0.0,0.0,1.21846967915e-07,0.0,0.0,0.0,1.21846967915e-07,0.075370579958,0.158809751272,9.81875228882,9e-08,0.0,0.0,0.0,9e-08,0.0,0.0,0.0,9e-08
1560461792222583371,40994,1560461792218928320,base_link,-0.00824856861242,-0.00310016840632,-0.674984992599,-0.737778971066,1.0,0.0,0.0,0.0,1.0,0.0,0.0,0.0,1.0,-0.000409056170611,0.000261259265244,0.0050978329964,1.21846967915e-07,0.0,0.0,0.0,1.21846967915e-07,0.0,0.0,0.0,1.21846967915e-07,0.0500424131751,0.175882488489,9.80431175232,9e-08,0.0,0.0,0.0,9e-08,0.0,0.0,0.0,9e-08
1560461792242548483,40995,1560461792238928320,base_link,-0.00824414549823,-0.00309524809103,-0.674994657398,-0.737770149204,1.0,0.0,0.0,0.0,1.0,0.0,0.0,0.0,1.0,-0.000861750915647,-0.00101502821781,0.00330157391727,1.21846967915e-07,0.0,0.0,0.0,1.21846967915e-07,0.0,0.0,0.0,1.21846967915e-07,0.0493129938841,0.178660184145,9.78854370117,9e-08,0.0,0.0,0.0,9e-08,0.0,0.0,0.0,9e-08
1560461792264087337,40996,1560461792258926016,base_link,-0.0082425052285,-0.00309355217428,-0.674999896778,-0.737765331292,1.0,0.0,0.0,0.0,1.0,0.0,0.0,0.0,1.0,0.00114877778105,-0.00155813398305,0.00242413789965,1.21846967915e-07,0.0,0.0,0.0,1.21846967915e-07,0.0,0.0,0.0,1.21846967915e-07,0.0728081464767,0.162953525782,9.84035587311,9e-08,0.0,0.0,0.0,9e-08,0.0,0.0,0.0,9e-08
1560461792282908529,40997,1560461792278926016,base_link,-0.00823584800207,-0.00309312346181,-0.67500146148,-0.737764019472,1.0,0.0,0.0,0.0,1.0,0.0,0.0,0.0,1.0,3.56099917553e-06,0.0014397619525,0.00433882046491,1.21846967915e-07,0.0,0.0,0.0,1.21846967915e-07,0.0,0.0,0.0,1.21846967915e-07,0.0364371314645,0.143812507391,9.860414505,9e-08,0.0,0.0,0.0,9e-08,0.0,0.0,0.0,9e-08
1560461792303743794,40998,1560461792298926016,base_link,-0.00823224922097,-0.00309025401875,-0.675016305073,-0.737750440284,1.0,0.0,0.0,0.0,1.0,0.0,0.0,0.0,1.0,-0.00040996572352,0.000274032703601,0.00541422376409,1.21846967915e-07,0.0,0.0,0.0,1.21846967915e-07,0.0,0.0,0.0,1.21846967915e-07,0.0496771857142,0.17383505404,9.77226829529,9e-08,0.0,0.0,0.0,9e-08,0.0,0.0,0.0,9e-08
1560461792322466809,40999,1560461792318926016,base_link,-0.00824020838989,-0.00309195174649,-0.675024737077,-0.737742598336,1.0,0.0,0.0,0.0,1.0,0.0,0.0,0.0,1.0,0.000524193048477,-0.00133260921575,0.00371128646657,1.21846967915e-07,0.0,0.0,0.0,1.21846967915e-07,0.0,0.0,0.0,1.21846967915e-07,0.0833374932408,0.178861916065,9.83889770508,9e-08,0.0,0.0,0.0,9e-08,0.0,0.0,0.0,9e-08
1560461792342903655,41000,1560461792338926016,base_link,-0.00823521003707,-0.00309729517663,-0.675041284984,-0.737727567716,1.0,0.0,0.0,0.0,1.0,0.0,0.0,0.0,1.0,-0.000520975328982,0.000907828216441,0.00487655960023,1.21846967915e-07,0.0,0.0,0.0,1.21846967915e-07,0.0,0.0,0.0,1.21846967915e-07,0.0478569529951,0.172149807215,9.82325172424,9e-08,0.0,0.0,0.0,9e-08,0.0,0.0,0.0,9e-08
1560461792363849621,41001,1560461792358923968,base_link,-0.00823081491103,-0.00309460831504,-0.675051992917,-0.737717787013,1.0,0.0,0.0,0.0,1.0,0.0,0.0,0.0,1.0,0.000523602066096,0.000367210013792,0.00347293540835,1.21846967915e-07,0.0,0.0,0.0,1.21846967915e-07,0.0,0.0,0.0,1.21846967915e-07,0.0786600708961,0.157470732927,9.78146076202,9e-08,0.0,0.0,0.0,9e-08,0.0,0.0,0.0,9e-08
1560461792383723281,41002,1560461792378923968,base_link,-0.00822769670278,-0.00308829880011,-0.675059481886,-0.737710972395,1.0,0.0,0.0,0.0,1.0,0.0,0.0,0.0,1.0,-0.00201660441235,-0.000364158535376,0.00446354551241,1.21846967915e-07,0.0,0.0,0.0,1.21846967915e-07,0.0,0.0,0.0,1.21846967915e-07,0.0642405748367,0.153241500258,9.80784606934,9e-08,0.0,0.0,0.0,9e-08,0.0,0.0,0.0,9e-08
1560461792403311749,41003,1560461792398923968,base_link,-0.00821984668761,-0.00308255250537,-0.675073387711,-0.737698499562,1.0,0.0,0.0,0.0,1.0,0.0,0.0,0.0,1.0,-0.00126315630041,0.00155207503121,0.00508285686374,1.21846967915e-07,0.0,0.0,0.0,1.21846967915e-07,0.0,0.0,0.0,1.21846967915e-07,0.0576235055923,0.181596577168,9.85343551636,9e-08,0.0,0.0,0.0,9e-08,0.0,0.0,0.0,9e-08
1560461792424030104,41004,1560461792418923968,base_link,-0.00821792176201,-0.00308484885007,-0.675086761433,-0.737686137364,1.0,0.0,0.0,0.0,1.0,0.0,0.0,0.0,1.0,0.00118708063383,0.000592971453443,0.00526683637872,1.21846967915e-07,0.0,0.0,0.0,1.21846967915e-07,0.0,0.0,0.0,1.21846967915e-07,0.0563861653209,0.11203802377,9.83191585541,9e-08,0.0,0.0,0.0,9e-08,0.0,0.0,0.0,9e-08
1560461792443482122,41005,1560461792438923968,base_link,-0.0082189151764,-0.00309243495353,-0.675097593173,-0.737676232855,1.0,0.0,0.0,0.0,1.0,0.0,0.0,0.0,1.0,0.00128746184055,0.00133799819741,0.00494051259011,1.21846967915e-07,0.0,0.0,0.0,1.21846967915e-07,0.0,0.0,0.0,1.21846967915e-07,0.0592866912484,0.164182186127,9.79616165161,9e-08,0.0,0.0,0.0,9e-08,0.0,0.0,0.0,9e-08
1560461792463193197,41006,1560461792458921152,base_link,-0.00822762031162,-0.00309061555969,-0.675109051848,-0.737665617117,1.0,0.0,0.0,0.0,1.0,0.0,0.0,0.0,1.0,-0.000332391937263,-0.00132947752718,0.00390405626968,1.21846967915e-07,0.0,0.0,0.0,1.21846967915e-07,0.0,0.0,0.0,1.21846967915e-07,0.0700791552663,0.164793968201,9.82756614685,9e-08,0.0,0.0,0.0,9e-08,0.0,0.0,0.0,9e-08
1560461792482062780,41007,1560461792478921152,base_link,-0.00822594695002,-0.00309085329425,-0.675124372227,-0.737651645437,1.0,0.0,0.0,0.0,1.0,0.0,0.0,0.0,1.0,-0.000412848399719,-0.000887048081495,0.00453751860186,1.21846967915e-07,0.0,0.0,0.0,1.21846967915e-07,0.0,0.0,0.0,1.21846967915e-07,0.0566445849836,0.171768471599,9.82437705994,9e-08,0.0,0.0,0.0,9e-08,0.0,0.0,0.0,9e-08
1560461792503976856,41008,1560461792498921152,base_link,-0.00822556729912,-0.00308647430255,-0.675137205943,-0.737639991833,1.0,0.0,0.0,0.0,1.0,0.0,0.0,0.0,1.0,-0.00102812156547,-0.000258650630713,0.00529775861651,1.21846967915e-07,0.0,0.0,0.0,1.21846967915e-07,0.0,0.0,0.0,1.21846967915e-07,0.0643987506628,0.169452473521,9.78097629547,9e-08,0.0,0.0,0.0,9e-08,0.0,0.0,0.0,9e-08
1560461792522239674,41009,1560461792518921152,base_link,-0.00823001395627,-0.00308941519768,-0.675152629055,-0.737625748833,1.0,0.0,0.0,0.0,1.0,0.0,0.0,0.0,1.0,0.00161431217566,0.000489313621074,0.00535477697849,1.21846967915e-07,0.0,0.0,0.0,1.21846967915e-07,0.0,0.0,0.0,1.21846967915e-07,0.0717340260744,0.177229911089,9.83415699005,9e-08,0.0,0.0,0.0,9e-08,0.0,0.0,0.0,9e-08
1560461792543557778,41010,1560461792540921152,base_link,-0.00822225086897,-0.00309566626679,-0.675160307684,-0.737618828847,1.0,0.0,0.0,0.0,1.0,0.0,0.0,0.0,1.0,-0.000784899631981,0.000444633886218,0.00399028882384,1.21846967915e-07,0.0,0.0,0.0,1.21846967915e-07,0.0,0.0,0.0,1.21846967915e-07,0.069812990725,0.153690606356,9.78058338165,9e-08,0.0,0.0,0.0,9e-08,0.0,0.0,0.0,9e-08
1560461792563893911,41011,1560461792560919104,base_link,-0.00821981853483,-0.0030931384437,-0.675172029776,-0.737608033985,1.0,0.0,0.0,0.0,1.0,0.0,0.0,0.0,1.0,-0.000633463438135,-0.00122585066129,0.0045359255746,1.21846967915e-07,0.0,0.0,0.0,1.21846967915e-07,0.0,0.0,0.0,1.21846967915e-07,0.0829245001078,0.137325853109,9.84121322632,9e-08,0.0,0.0,0.0,9e-08,0.0,0.0,0.0,9e-08
1560461792584737115,41012,1560461792580919104,base_link,-0.00821690875592,-0.00309119738376,-0.675185838137,-0.73759549003,1.0,0.0,0.0,0.0,1.0,0.0,0.0,0.0,1.0,-9.31478862185e-05,-0.000577127211727,0.00442613568157,1.21846967915e-07,0.0,0.0,0.0,1.21846967915e-07,0.0,0.0,0.0,1.21846967915e-07,0.0424226261675,0.176877602935,9.77115535736,9e-08,0.0,0.0,0.0,9e-08,0.0,0.0,0.0,9e-08
1560461792603887116,41013,1560461792600919104,base_link,-0.00821811833755,-0.00309607802174,-0.675199232933,-0.737583106759,1.0,0.0,0.0,0.0,1.0,0.0,0.0,0.0,1.0,0.000735070847441,0.0019635935314,0.00323418038897,1.21846967915e-07,0.0,0.0,0.0,1.21846967915e-07,0.0,0.0,0.0,1.21846967915e-07,0.0532546266913,0.157797858119,9.83339691162,9e-08,0.0,0.0,0.0,9e-08,0.0,0.0,0.0,9e-08
1560461792625327331,41014,1560461792620919104,base_link,-0.00821374609592,-0.0030952899086,-0.675205259932,-0.737577754109,1.0,0.0,0.0,0.0,1.0,0.0,0.0,0.0,1.0,0.00020394747844,-0.00026910752058,0.00345927709714,1.21846967915e-07,0.0,0.0,0.0,1.21846967915e-07,0.0,0.0,0.0,1.21846967915e-07,0.0799505710602,0.137685790658,9.80750370026,9e-08,0.0,0.0,0.0,9e-08,0.0,0.0,0.0,9e-08
1560461792643274384,41015,1560461792640919104,base_link,-0.0082158700666,-0.00309638490348,-0.675219966548,-0.737564227605,1.0,0.0,0.0,0.0,1.0,0.0,0.0,0.0,1.0,-0.000635418284219,0.000261497101747,0.00442541949451,1.21846967915e-07,0.0,0.0,0.0,1.21846967915e-07,0.0,0.0,0.0,1.21846967915e-07,0.0507372952998,0.163952872157,9.83718585968,9e-08,0.0,0.0,0.0,9e-08,0.0,0.0,0.0,9e-08
1560461792664640970,41016,1560461792660917056,base_link,-0.00821684158438,-0.00309017795686,-0.675233598419,-0.737551775845,1.0,0.0,0.0,0.0,1.0,0.0,0.0,0.0,1.0,-0.000762041832786,-0.000563284498639,0.00409872923046,1.21846967915e-07,0.0,0.0,0.0,1.21846967915e-07,0.0,0.0,0.0,1.21846967915e-07,0.0797897130251,0.149622857571,9.81905651093,9e-08,0.0,0.0,0.0,9e-08,0.0,0.0,0.0,9e-08
1560461792683808488,41017,1560461792680917056,base_link,-0.00822051214684,-0.00307931740547,-0.675250233254,-0.737536574004,1.0,0.0,0.0,0.0,1.0,0.0,0.0,0.0,1.0,-0.00051527650794,-0.00259070214815,0.00549846189097,1.21846967915e-07,0.0,0.0,0.0,1.21846967915e-07,0.0,0.0,0.0,1.21846967915e-07,0.0561100505292,0.150212526321,9.84357452393,9e-08,0.0,0.0,0.0,9e-08,0.0,0.0,0.0,9e-08
1560461792701893250,41018,1560461792696917056,base_link,-0.00822611487887,-0.00307549537778,-0.675266728476,-0.73752142748,1.0,0.0,0.0,0.0,1.0,0.0,0.0,0.0,1.0,0.000125900158309,0.000272705103271,0.00547616649419,1.21846967915e-07,0.0,0.0,0.0,1.21846967915e-07,0.0,0.0,0.0,1.21846967915e-07,0.0732957646251,0.157328814268,9.84567260742,9e-08,0.0,0.0,0.0,9e-08,0.0,0.0,0.0,9e-08
1560461792723945384,41019,1560461792720917056,base_link,-0.00821778050422,-0.00306712247827,-0.675277159821,-0.737511923366,1.0,0.0,0.0,0.0,1.0,0.0,0.0,0.0,1.0,-0.00192550686188,-0.0013308407506,0.00326261529699,1.21846967915e-07,0.0,0.0,0.0,1.21846967915e-07,0.0,0.0,0.0,1.21846967915e-07,0.0520276576281,0.169283077121,9.79845428467,9e-08,0.0,0.0,0.0,9e-08,0.0,0.0,0.0,9e-08
1560461792743780130,41020,1560461792740917056,base_link,-0.0082242661798,-0.00306507275849,-0.675290910231,-0.737499268774,1.0,0.0,0.0,0.0,1.0,0.0,0.0,0.0,1.0,0.000313807453495,-0.000903772714082,0.00376296811737,1.21846967915e-07,0.0,0.0,0.0,1.21846967915e-07,0.0,0.0,0.0,1.21846967915e-07,0.0501223579049,0.178534045815,9.83428287506,9e-08,0.0,0.0,0.0,9e-08,0.0,0.0,0.0,9e-08
1560461792764998465,41021,1560461792760914752,base_link,-0.0082244329562,-0.00306855563576,-0.675298775886,-0.737492077468,1.0,0.0,0.0,0.0,1.0,0.0,0.0,0.0,1.0,-0.000228852790315,0.00143370078877,0.00279976101592,1.21846967915e-07,0.0,0.0,0.0,1.21846967915e-07,0.0,0.0,0.0,1.21846967915e-07,0.10454274714,0.149544045329,9.84164428711,9e-08,0.0,0.0,0.0,9e-08,0.0,0.0,0.0,9e-08
1560461792783992841,41022,1560461792780914752,base_link,-0.00822186413871,-0.0030666450335,-0.675311707066,-0.737480242107,1.0,0.0,0.0,0.0,1.0,0.0,0.0,0.0,1.0,0.00012749141024,-0.000464898534119,0.00514940172434,1.21846967915e-07,0.0,0.0,0.0,1.21846967915e-07,0.0,0.0,0.0,1.21846967915e-07,0.0546921491623,0.169264808297,9.77984142303,9e-08,0.0,0.0,0.0,9e-08,0.0,0.0,0.0,9e-08
1560461792803142405,41023,1560461792800914752,base_link,-0.00822839854659,-0.00305890548917,-0.67532558655,-0.737467542734,1.0,0.0,0.0,0.0,1.0,0.0,0.0,0.0,1.0,-0.000103416692582,0.000271268654615,0.00429269345477,1.21846967915e-07,0.0,0.0,0.0,1.21846967915e-07,0.0,0.0,0.0,1.21846967915e-07,0.0589018762112,0.192551091313,9.80533599854,9e-08,0.0,0.0,0.0,9e-08,0.0,0.0,0.0,9e-08
1560461792824521726,41024,1560461792820914752,base_link,-0.0082227454359,-0.00306281082274,-0.675335767648,-0.737458373161,1.0,0.0,0.0,0.0,1.0,0.0,0.0,0.0,1.0,-0.000649400113616,0.000690483371727,0.00323153450154,1.21846967915e-07,0.0,0.0,0.0,1.21846967915e-07,0.0,0.0,0.0,1.21846967915e-07,0.0786849558353,0.162632197142,9.79342842102,9e-08,0.0,0.0,0.0,9e-08,0.0,0.0,0.0,9e-08
1560461792844472305,41025,1560461792840914752,base_link,-0.00822402795133,-0.00305976472512,-0.675346507192,-0.737448476554,1.0,0.0,0.0,0.0,1.0,0.0,0.0,0.0,1.0,0.00106817460619,-0.00026209326461,0.00427425187081,1.21846967915e-07,0.0,0.0,0.0,1.21846967915e-07,0.0,0.0,0.0,1.21846967915e-07,0.0702773928642,0.123507723212,9.76993179321,9e-08,0.0,0.0,0.0,9e-08,0.0,0.0,0.0,9e-08
1560461792864144546,41026,1560461792860914240,base_link,-0.00821889393834,-0.00305343084404,-0.675360692241,-0.737435471617,1.0,0.0,0.0,0.0,1.0,0.0,0.0,0.0,1.0,-0.00190716458019,0.00112284393981,0.00462727341801,1.21846967915e-07,0.0,0.0,0.0,1.21846967915e-07,0.0,0.0,0.0,1.21846967915e-07,0.0540938675404,0.162719190121,9.8080701828,9e-08,0.0,0.0,0.0,9e-08,0.0,0.0,0.0,9e-08
1560461792883091141,41027,1560461792880914240,base_link,-0.00820103964428,-0.00305306452866,-0.675374353088,-0.737423159469,1.0,0.0,0.0,0.0,1.0,0.0,0.0,0.0,1.0,-0.00117653305642,0.0014352776343,0.00344462320209,1.21846967915e-07,0.0,0.0,0.0,1.21846967915e-07,0.0,0.0,0.0,1.21846967915e-07,0.0532955601811,0.186852514744,9.78926181793,9e-08,0.0,0.0,0.0,9e-08,0.0,0.0,0.0,9e-08
1560461792905353341,41028,1560461792901914240,base_link,-0.00820798514857,-0.00304890598473,-0.67538493985,-0.737413499938,1.0,0.0,0.0,0.0,1.0,0.0,0.0,0.0,1.0,0.00180597708095,-0.00207364163361,0.00363325094804,1.21846967915e-07,0.0,0.0,0.0,1.21846967915e-07,0.0,0.0,0.0,1.21846967915e-07,0.0502556338906,0.167296811938,9.76850032806,9e-08,0.0,0.0,0.0,9e-08,0.0,0.0,0.0,9e-08
1560461792925038472,41029,1560461792921914240,base_link,-0.00820895073945,-0.00304254559723,-0.675400365596,-0.737399254303,1.0,0.0,0.0,0.0,1.0,0.0,0.0,0.0,1.0,0.000422979821451,0.000159825547598,0.00427766144276,1.21846967915e-07,0.0,0.0,0.0,1.21846967915e-07,0.0,0.0,0.0,1.21846967915e-07,0.0783468782902,0.154493778944,9.80731773376,9e-08,0.0,0.0,0.0,9e-08,0.0,0.0,0.0,9e-08
1560461792945019836,41030,1560461792941914240,base_link,-0.0082051680598,-0.0030469025277,-0.67540953517,-0.737390927666,1.0,0.0,0.0,0.0,1.0,0.0,0.0,0.0,1.0,0.00137416389771,-0.000266732648015,0.0033083432354,1.21846967915e-07,0.0,0.0,0.0,1.21846967915e-07,0.0,0.0,0.0,1.21846967915e-07,0.0280258394778,0.150250539184,9.78136348724,9e-08,0.0,0.0,0.0,9e-08,0.0,0.0,0.0,9e-08
1560461792964665535,41031,1560461792961912192,base_link,-0.0082088707263,-0.00305011062727,-0.675423167041,-0.737378391613,1.0,0.0,0.0,0.0,1.0,0.0,0.0,0.0,1.0,0.00182326778304,-4.72830142826e-05,0.0048975367099,1.21846967915e-07,0.0,0.0,0.0,1.21846967915e-07,0.0,0.0,0.0,1.21846967915e-07,0.0400688424706,0.144666105509,9.79211711884,9e-08,0.0,0.0,0.0,9e-08,0.0,0.0,0.0,9e-08
1560461792984588530,41032,1560461792981912192,base_link,-0.00820677013395,-0.00304828234308,-0.675436738327,-0.737366000439,1.0,0.0,0.0,0.0,1.0,0.0,0.0,0.0,1.0,-0.000410989014199,-4.74292319268e-05,0.00513715483248,1.21846967915e-07,0.0,0.0,0.0,1.21846967915e-07,0.0,0.0,0.0,1.21846967915e-07,0.0856918916106,0.181345745921,9.81679534912,9e-08,0.0,0.0,0.0,9e-08,0.0,0.0,0.0,9e-08
1560461793004220548,41033,1560461793001912192,base_link,-0.0082035552843,-0.00305751102118,-0.675454534833,-0.737349721219,1.0,0.0,0.0,0.0,1.0,0.0,0.0,0.0,1.0,0.00139758060686,0.000272566918284,0.00479238806292,1.21846967915e-07,0.0,0.0,0.0,1.21846967915e-07,0.0,0.0,0.0,1.21846967915e-07,0.106127843261,0.165911048651,9.77649402618,9e-08,0.0,0.0,0.0,9e-08,0.0,0.0,0.0,9e-08
1560461793022866795,41034,1560461793017912192,base_link,-0.0082037968055,-0.00305434292819,-0.675462742932,-0.737342271764,1.0,0.0,0.0,0.0,1.0,0.0,0.0,0.0,1.0,-0.000850658863783,-0.00185688072816,0.00397631945089,1.21846967915e-07,0.0,0.0,0.0,1.21846967915e-07,0.0,0.0,0.0,1.21846967915e-07,0.0611275956035,0.17496971786,9.79333686829,9e-08,0.0,0.0,0.0,9e-08,0.0,0.0,0.0,9e-08
1560461793044156244,41035,1560461793041912192,base_link,-0.0082120220264,-0.00306108378977,-0.675476150898,-0.737329791028,1.0,0.0,0.0,0.0,1.0,0.0,0.0,0.0,1.0,0.000760415568948,0.00145208940376,0.00415670499206,1.21846967915e-07,0.0,0.0,0.0,1.21846967915e-07,0.0,0.0,0.0,1.21846967915e-07,0.064279191196,0.191081672907,9.79820919037,9e-08,0.0,0.0,0.0,9e-08,0.0,0.0,0.0,9e-08
1560461793063259106,41036,1560461793057910144,base_link,-0.00820425284757,-0.00306307094782,-0.675480270753,-0.737326092642,1.0,0.0,0.0,0.0,1.0,0.0,0.0,0.0,1.0,-0.00257252971642,-5.32313715667e-05,0.00259774015285,1.21846967915e-07,0.0,0.0,0.0,1.21846967915e-07,0.0,0.0,0.0,1.21846967915e-07,0.0591209940612,0.162943676114,9.79169750214,9e-08,0.0,0.0,0.0,9e-08,0.0,0.0,0.0,9e-08
1560461793084429815,41037,1560461793081910144,base_link,-0.00820579845153,-0.00305621747513,-0.675501557545,-0.737306660311,1.0,0.0,0.0,0.0,1.0,0.0,0.0,0.0,1.0,0.000978177879006,-0.00163359602448,0.00564191117883,1.21846967915e-07,0.0,0.0,0.0,1.21846967915e-07,0.0,0.0,0.0,1.21846967915e-07,0.0588323622942,0.113235346973,9.84444713593,9e-08,0.0,0.0,0.0,9e-08,0.0,0.0,0.0,9e-08
